participant,date,expName,psychopyVersion,OS,frameRate,payoff_list,phase,rare_transition,left_alien,left_probabilty,right_alien,right_probabilty,select_sp,show_alien,rocket_trans,rand_sp,planet,key_resp_exp.keys,key_resp_exp.rt,chosen_alien,select_alien,transmoney,rand_money,totalgold,trialgain,probs,key_resp_exp_alien.keys,key_resp_exp_alien.rt,loop_exp.thisRepN,loop_exp.thisTrialN,loop_exp.thisN,loop_exp.thisIndex,loop_exp.ran,p1,p2,p3,p4,flip_sides,static_probability_left,static_probability_right,key_resp_probe.keys,key_resp_probe.rt,accuracy,probe_loop.thisRepN,probe_loop.thisTrialN,probe_loop.thisN,probe_loop.thisIndex,probe_loop.ran,probe_la,probe_ra,key_resp.keys,key_resp.rt,slider.response,slider.rt,post_loop.thisRepN,post_loop.thisTrialN,post_loop.thisN,post_loop.thisIndex,post_loop.ran,text_up,pos_text_up,text_down,pos_img_left_up,left_up_img,right_up_img,left_down_img_1,left_down_img_2,right_down_img_1,right_down_img_2,size,show_slider
107769,2023-11-06_12h57.42.982,two_step_task_legacy,2022.2.4,Win32,59.97720866,,,,,,,,,,,,,,,,,,,,,,,,,,,,,,,,,,,,,,,,,,,,,,,,,,,,,,,,,,,,,,,,,,
107769,2023-11-06_12h57.42.982,two_step_task_legacy,2022.2.4,Win32,59.97720866,,,,,,,,,,,,,,,,,,,,,,,,,,,,,,,,,,,,,,,,,,,,,,,,,,,,,,,,,,,,,,,,,,
107769,2023-11-06_12h57.42.982,two_step_task_legacy,2022.2.4,Win32,59.97720866,,,,,,,,,,,,,,,,,,,,,,,,,,,,,,,,,,,,,,,,,,,,,,,,,,,,,,,,,,,,,,,,,,
107769,2023-11-06_12h57.42.982,two_step_task_legacy,2022.2.4,Win32,59.97720866,,,,,,,,,,,,,,,,,,,,,,,,,,,,,,,,,,,,,,,,,,,,,,,,,,,,,,,,,,,,,,,,,,
107769,2023-11-06_12h57.42.982,two_step_task_legacy,2022.2.4,Win32,59.97720866,,,,,,,,,,,,,,,,,,,,,,,,,,,,,,,,,,,,,,,,,,,,,,,,,,,,,,,,,,,,,,,,,,
107769,2023-11-06_12h57.42.982,two_step_task_legacy,2022.2.4,Win32,59.97720866,,,,,,,,,,,,,,,,,,,,,,,,,,,,,,,,,,,,,,,,,,,,,,,,,,,,,,,,,,,,,,,,,,
107769,2023-11-06_12h57.42.982,two_step_task_legacy,2022.2.4,Win32,59.97720866,,,,,,,,,,,,,,,,,,,,,,,,,,,,,,,,,,,,,,,,,,,,,,,,,,,,,,,,,,,,,,,,,,
107769,2023-11-06_12h57.42.982,two_step_task_legacy,2022.2.4,Win32,59.97720866,,,,,,,,,,,,,,,,,,,,,,,,,,,,,,,,,,,,,,,,,,,,,,,,,,,,,,,,,,,,,,,,,,
107769,2023-11-06_12h57.42.982,two_step_task_legacy,2022.2.4,Win32,59.97720866,,,,,,,,,,,,,,,,,,,,,,,,,,,,,,,,,,,,,,,,,,,,,,,,,,,,,,,,,,,,,,,,,,
107769,2023-11-06_12h57.42.982,two_step_task_legacy,2022.2.4,Win32,59.97720866,,,,,,,,,,,,,,,,,,,,,,,,,,,,,,,,,,,,,,,,,,,,,,,,,,,,,,,,,,,,,,,,,,
107769,2023-11-06_12h57.42.982,two_step_task_legacy,2022.2.4,Win32,59.97720866,,,,,,,,,,,,,,,,,,,,,,,,,,,,,,,,,,,,,,,,,,,,,,,,,,,,,,,,,,,,,,,,,,
107769,2023-11-06_12h57.42.982,two_step_task_legacy,2022.2.4,Win32,59.97720866,23,learning,1,resources/alien3_norm.png,0.684167385,resources/alien4_norm.png,0.574881385,TRUE,TRUE,2,0.844098613,purple,m,0.6137,alien4,TRUE,2,0.133577089,1,1,0.574881385,m,0.1649,0,0,0,0,1,0.601195094,0.412920416,0.684167385,0.574881385,FALSE,,,,,,,,,,,,,,,,,,,,,,,,,,,,,,,,,
107769,2023-11-06_12h57.42.982,two_step_task_legacy,2022.2.4,Win32,59.97720866,23,learning,0,resources/alien1_norm.png,0.625745146,resources/alien2_norm.png,0.384635186,TRUE,TRUE,3,0.105156646,red,m,0.1267,alien2,TRUE,3,0.456405437,1,0,0.384635186,m,0.8008,0,1,1,1,1,0.625745146,0.384635186,0.686024818,0.598570502,FALSE,,,,,,,,,,,,,,,,,,,,,,,,,,,,,,,,,
107769,2023-11-06_12h57.42.982,two_step_task_legacy,2022.2.4,Win32,59.97720866,23,learning,0,resources/alien2_norm.png,0.369840214,resources/alien1_norm.png,0.607315968,TRUE,TRUE,3,0.363621497,red,m,0.1842,alien1,TRUE,2,0.572880951,2,1,0.607315968,m,0.1671,0,2,2,2,1,0.607315968,0.369840214,0.644881976,0.638671366,TRUE,,,,,,,,,,,,,,,,,,,,,,,,,,,,,,,,,
107769,2023-11-06_12h57.42.982,two_step_task_legacy,2022.2.4,Win32,59.97720866,23,learning,0,resources/alien2_norm.png,0.370949282,resources/alien1_norm.png,0.553970902,TRUE,TRUE,3,0.306880177,red,m,0.1281,alien1,TRUE,2,0.030294044,3,1,0.553970902,m,0.183,0,3,3,3,1,0.553970902,0.370949282,0.634096222,0.581962699,TRUE,,,,,,,,,,,,,,,,,,,,,,,,,,,,,,,,,
107769,2023-11-06_12h57.42.982,two_step_task_legacy,2022.2.4,Win32,59.97720866,23,learning,0,resources/alien1_norm.png,0.531032286,resources/alien2_norm.png,0.403833123,TRUE,TRUE,3,0.662948475,red,m,0.1837,alien2,TRUE,2,0.236046859,4,1,0.403833123,m,0.0006,0,4,4,4,1,0.531032286,0.403833123,0.641581245,0.574748429,FALSE,,,,,,,,,,,,,,,,,,,,,,,,,,,,,,,,,
107769,2023-11-06_12h57.42.982,two_step_task_legacy,2022.2.4,Win32,59.97720866,23,learning,0,resources/alien1_norm.png,0.567657882,resources/alien2_norm.png,0.413108418,TRUE,TRUE,3,0.644722246,red,m,0.1764,alien2,TRUE,3,0.677600766,4,0,0.413108418,m,0.1495,0,5,5,5,1,0.567657882,0.413108418,0.653289635,0.5733101,FALSE,,,,,,,,,,,,,,,,,,,,,,,,,,,,,,,,,
107769,2023-11-06_12h57.42.982,two_step_task_legacy,2022.2.4,Win32,59.97720866,23,learning,1,resources/alien3_norm.png,0.710266348,resources/alien4_norm.png,0.526958851,TRUE,TRUE,2,0.906450019,purple,m,0.4246,alien4,TRUE,3,0.638254988,4,0,0.526958851,m,0.1165,0,6,6,6,1,0.583224272,0.425080565,0.710266348,0.526958851,FALSE,,,,,,,,,,,,,,,,,,,,,,,,,,,,,,,,,
107769,2023-11-06_12h57.42.982,two_step_task_legacy,2022.2.4,Win32,59.97720866,23,learning,1,resources/alien3_norm.png,0.713974974,resources/alien4_norm.png,0.480861246,TRUE,TRUE,2,0.851038763,purple,m,0.0506,alien4,TRUE,2,0.209167279,5,1,0.480861246,m,0.2295,0,7,7,7,1,0.611992163,0.442857993,0.713974974,0.480861246,FALSE,,,,,,,,,,,,,,,,,,,,,,,,,,,,,,,,,
107769,2023-11-06_12h57.42.982,two_step_task_legacy,2022.2.4,Win32,59.97720866,23,learning,0,resources/alien2_norm.png,0.431833253,resources/alien1_norm.png,0.612740558,TRUE,TRUE,3,0.565170346,red,m,0.2006,alien1,TRUE,3,0.763814736,5,0,0.612740558,m,0.2252,0,8,8,8,1,0.612740558,0.431833253,0.7109314,0.461218259,TRUE,,,,,,,,,,,,,,,,,,,,,,,,,,,,,,,,,
107769,2023-11-06_12h57.42.982,two_step_task_legacy,2022.2.4,Win32,59.97720866,23,learning,0,resources/alien1_norm.png,0.608500544,resources/alien2_norm.png,0.441677248,TRUE,TRUE,3,0.025187413,red,m,0.1172,alien2,TRUE,3,0.52686754,5,0,0.441677248,m,0.2036,0,9,9,9,1,0.608500544,0.441677248,0.702346871,0.482120856,FALSE,,,,,,,,,,,,,,,,,,,,,,,,,,,,,,,,,
107769,2023-11-06_12h57.42.982,two_step_task_legacy,2022.2.4,Win32,59.97720866,23,learning,0,resources/alien2_norm.png,0.482625454,resources/alien1_norm.png,0.576141425,TRUE,TRUE,3,0.111052348,red,m,0.1893,alien1,TRUE,2,0.292606093,6,1,0.576141425,m,0.1506,0,10,10,10,1,0.576141425,0.482625454,0.67633549,0.532346574,TRUE,,,,,,,,,,,,,,,,,,,,,,,,,,,,,,,,,
107769,2023-11-06_12h57.42.982,two_step_task_legacy,2022.2.4,Win32,59.97720866,23,learning,0,resources/alien1_norm.png,0.568074544,resources/alien2_norm.png,0.493435168,TRUE,TRUE,3,0.21767144,red,m,0.0499,alien2,TRUE,2,0.276217608,7,1,0.493435168,m,0.0331,0,11,11,11,1,0.568074544,0.493435168,0.664063745,0.561189193,FALSE,,,,,,,,,,,,,,,,,,,,,,,,,,,,,,,,,
107769,2023-11-06_12h57.42.982,two_step_task_legacy,2022.2.4,Win32,59.97720866,23,learning,0,resources/alien2_norm.png,0.510599306,resources/alien1_norm.png,0.580926918,TRUE,TRUE,3,0.425073518,red,m,0.1671,alien1,TRUE,2,0.238196384,8,1,0.580926918,m,0.1504,0,12,12,12,1,0.580926918,0.510599306,0.672411387,0.548431613,TRUE,,,,,,,,,,,,,,,,,,,,,,,,,,,,,,,,,
107769,2023-11-06_12h57.42.982,two_step_task_legacy,2022.2.4,Win32,59.97720866,23,learning,0,resources/alien1_norm.png,0.600410731,resources/alien2_norm.png,0.440226577,TRUE,TRUE,3,0.466564554,red,m,0.1077,alien2,TRUE,2,0.079176709,9,1,0.440226577,m,0.1233,0,13,13,13,1,0.600410731,0.440226577,0.663587653,0.549136269,FALSE,,,,,,,,,,,,,,,,,,,,,,,,,,,,,,,,,
107769,2023-11-06_12h57.42.982,two_step_task_legacy,2022.2.4,Win32,59.97720866,23,learning,0,resources/alien2_norm.png,0.418298082,resources/alien1_norm.png,0.611788063,TRUE,TRUE,3,0.477235925,red,m,0.4543,alien1,TRUE,2,0.350796845,10,1,0.611788063,m,0.1419,0,14,14,14,1,0.611788063,0.418298082,0.666002255,0.524244528,TRUE,,,,,,,,,,,,,,,,,,,,,,,,,,,,,,,,,
107769,2023-11-06_12h57.42.982,two_step_task_legacy,2022.2.4,Win32,59.97720866,23,learning,1,resources/alien3_norm.png,0.677601938,resources/alien4_norm.png,0.531921129,TRUE,TRUE,2,0.929010845,purple,m,0.2098,alien4,TRUE,2,0.187538566,11,1,0.531921129,m,0.0006,0,15,15,15,1,0.598923528,0.389234347,0.677601938,0.531921129,FALSE,,,,,,,,,,,,,,,,,,,,,,,,,,,,,,,,,
107769,2023-11-06_12h57.42.982,two_step_task_legacy,2022.2.4,Win32,59.97720866,23,learning,1,resources/alien4_norm.png,0.532800124,resources/alien3_norm.png,0.658528817,TRUE,TRUE,2,0.992487686,purple,m,0.0004,alien3,TRUE,2,0.351256203,12,1,0.658528817,m,0.0005,0,16,16,16,1,0.573752737,0.442467063,0.658528817,0.532800124,TRUE,,,,,,,,,,,,,,,,,,,,,,,,,,,,,,,,,
107769,2023-11-06_12h57.42.982,two_step_task_legacy,2022.2.4,Win32,59.97720866,23,learning,1,resources/alien3_norm.png,0.631175471,resources/alien4_norm.png,0.552412586,TRUE,TRUE,2,0.767258452,purple,m,0.112,alien4,TRUE,2,0.405715463,13,1,0.552412586,m,0.034,0,17,17,17,1,0.566603312,0.428427973,0.631175471,0.552412586,FALSE,,,,,,,,,,,,,,,,,,,,,,,,,,,,,,,,,
107769,2023-11-06_12h57.42.982,two_step_task_legacy,2022.2.4,Win32,59.97720866,23,learning,1,resources/alien3_norm.png,0.604740096,resources/alien4_norm.png,0.565590497,TRUE,TRUE,2,0.780190395,purple,m,0.1722,alien4,TRUE,2,0.447560051,14,1,0.565590497,m,0.096,0,18,18,18,1,0.582114013,0.425646271,0.604740096,0.565590497,FALSE,,,,,,,,,,,,,,,,,,,,,,,,,,,,,,,,,
107769,2023-11-06_12h57.42.982,two_step_task_legacy,2022.2.4,Win32,59.97720866,23,learning,0,resources/alien1_norm.png,0.561351389,resources/alien2_norm.png,0.373328893,TRUE,TRUE,3,0.124100288,red,m,0.0957,alien2,TRUE,2,0.361808204,15,1,0.373328893,m,0.1834,0,19,19,19,1,0.561351389,0.373328893,0.572334771,0.567031065,FALSE,,,,,,,,,,,,,,,,,,,,,,,,,,,,,,,,,
107769,2023-11-06_12h57.42.982,two_step_task_legacy,2022.2.4,Win32,59.97720866,23,learning,0,resources/alien1_norm.png,0.600913787,resources/alien2_norm.png,0.418292814,TRUE,TRUE,3,0.67432832,red,m,0.0006,alien2,TRUE,3,0.916063798,15,0,0.418292814,m,0.1336,0,20,20,20,1,0.600913787,0.418292814,0.559110428,0.54814434,FALSE,,,,,,,,,,,,,,,,,,,,,,,,,,,,,,,,,
107769,2023-11-06_12h57.42.982,two_step_task_legacy,2022.2.4,Win32,59.97720866,23,learning,1,resources/alien3_norm.png,0.568809314,resources/alien4_norm.png,0.566532625,TRUE,TRUE,2,0.921514592,purple,m,0.0177,alien4,TRUE,3,0.756892294,15,0,0.566532625,m,0.1217,0,21,21,21,1,0.583272345,0.422500338,0.568809314,0.566532625,FALSE,,,,,,,,,,,,,,,,,,,,,,,,,,,,,,,,,
107769,2023-11-06_12h57.42.982,two_step_task_legacy,2022.2.4,Win32,59.97720866,23,learning,1,resources/alien4_norm.png,0.561719482,resources/alien3_norm.png,0.55652811,TRUE,TRUE,2,0.852994554,purple,m,0.0386,alien3,TRUE,2,0.45798283,16,1,0.55652811,m,0.2006,0,22,22,22,1,0.609961034,0.394003844,0.55652811,0.561719482,TRUE,,,,,,,,,,,,,,,,,,,,,,,,,,,,,,,,,
107769,2023-11-06_12h57.42.982,two_step_task_legacy,2022.2.4,Win32,59.97720866,23,learning,0,resources/alien2_norm.png,0.394651748,resources/alien1_norm.png,0.590272679,TRUE,TRUE,3,0.64868689,red,m,0.1258,alien1,TRUE,2,0.169571515,17,1,0.590272679,m,0.1667,0,23,23,23,1,0.590272679,0.394651748,0.555724238,0.544931665,TRUE,,,,,,,,,,,,,,,,,,,,,,,,,,,,,,,,,
107769,2023-11-06_12h57.42.982,two_step_task_legacy,2022.2.4,Win32,59.97720866,23,learning,0,resources/alien2_norm.png,0.431176562,resources/alien1_norm.png,0.605617399,TRUE,TRUE,3,0.243409002,red,m,0.1941,alien1,TRUE,2,0.131789232,18,1,0.605617399,m,0.0186,0,24,24,24,1,0.605617399,0.431176562,0.576639227,0.55069953,TRUE,,,,,,,,,,,,,,,,,,,,,,,,,,,,,,,,,
107769,2023-11-06_12h57.42.982,two_step_task_legacy,2022.2.4,Win32,59.97720866,23,learning,0,resources/alien2_norm.png,0.420786543,resources/alien1_norm.png,0.613091185,TRUE,TRUE,3,0.404254254,red,m,0.2052,alien1,TRUE,3,0.9359742,18,0,0.613091185,m,0.0006,0,25,25,25,1,0.613091185,0.420786543,0.557257773,0.534624757,TRUE,,,,,,,,,,,,,,,,,,,,,,,,,,,,,,,,,
107769,2023-11-06_12h57.42.982,two_step_task_legacy,2022.2.4,Win32,59.97720866,23,learning,0,resources/alien2_norm.png,0.450532133,resources/alien1_norm.png,0.595872609,TRUE,TRUE,3,0.159029678,red,m,0.2345,alien1,TRUE,2,0.10844539,19,1,0.595872609,m,0.4107,0,26,26,26,1,0.595872609,0.450532133,0.576094467,0.545850614,TRUE,,,,,,,,,,,,,,,,,,,,,,,,,,,,,,,,,
107769,2023-11-06_12h57.42.982,two_step_task_legacy,2022.2.4,Win32,59.97720866,23,learning,0,resources/alien1_norm.png,0.643406653,resources/alien2_norm.png,0.477668773,TRUE,TRUE,3,0.280167753,red,m,0.4337,alien2,TRUE,3,0.589759563,19,0,0.477668773,m,0.143,0,27,27,27,1,0.643406653,0.477668773,0.592199407,0.511001288,FALSE,,,,,,,,,,,,,,,,,,,,,,,,,,,,,,,,,
107769,2023-11-06_12h57.42.982,two_step_task_legacy,2022.2.4,Win32,59.97720866,23,learning,0,resources/alien1_norm.png,0.627060866,resources/alien2_norm.png,0.482589761,TRUE,TRUE,3,0.133027548,red,m,0.1709,alien2,TRUE,3,0.568774598,19,0,0.482589761,m,0.1173,0,28,28,28,1,0.627060866,0.482589761,0.634639671,0.503306501,FALSE,,,,,,,,,,,,,,,,,,,,,,,,,,,,,,,,,
107769,2023-11-06_12h57.42.982,two_step_task_legacy,2022.2.4,Win32,59.97720866,23,learning,0,resources/alien1_norm.png,0.659503493,resources/alien2_norm.png,0.473630358,TRUE,TRUE,3,0.560052423,red,m,0.0005,alien2,TRUE,2,0.256895944,20,1,0.473630358,m,0.1916,0,29,29,29,1,0.659503493,0.473630358,0.636367601,0.500905699,FALSE,,,,,,,,,,,,,,,,,,,,,,,,,,,,,,,,,
107769,2023-11-06_12h57.42.982,two_step_task_legacy,2022.2.4,Win32,59.97720866,23,learning,0,resources/alien1_norm.png,0.633289649,resources/alien2_norm.png,0.501315139,TRUE,TRUE,3,0.17976223,red,m,0.0169,alien2,TRUE,2,0.337112334,21,1,0.501315139,m,0.2281,0,30,30,30,1,0.633289649,0.501315139,0.637914928,0.501224844,FALSE,,,,,,,,,,,,,,,,,,,,,,,,,,,,,,,,,
107769,2023-11-06_12h57.42.982,two_step_task_legacy,2022.2.4,Win32,59.97720866,23,learning,0,resources/alien2_norm.png,0.486335384,resources/alien1_norm.png,0.601309191,TRUE,TRUE,3,0.45329178,red,m,0.0666,alien1,TRUE,2,0.040945456,22,1,0.601309191,m,0.648,0,31,31,31,1,0.601309191,0.486335384,0.634843763,0.49511204,TRUE,,,,,,,,,,,,,,,,,,,,,,,,,,,,,,,,,
107769,2023-11-06_12h57.42.982,two_step_task_legacy,2022.2.4,Win32,59.97720866,23,learning,0,resources/alien2_norm.png,0.467762774,resources/alien1_norm.png,0.601010443,TRUE,TRUE,3,0.536838162,red,m,0.1268,alien1,TRUE,2,0.496279476,23,1,0.601010443,m,0.0679,0,32,32,32,1,0.601010443,0.467762774,0.625739977,0.492316248,TRUE,,,,,,,,,,,,,,,,,,,,,,,,,,,,,,,,,
107769,2023-11-06_12h57.42.982,two_step_task_legacy,2022.2.4,Win32,59.97720866,23,learning,0,resources/alien1_norm.png,0.622204761,resources/alien2_norm.png,0.465440023,TRUE,TRUE,3,0.392058679,red,m,0.1501,alien2,TRUE,3,0.970033632,23,0,0.465440023,m,0.1,0,33,33,33,1,0.622204761,0.465440023,0.615828505,0.545653013,FALSE,,,,,,,,,,,,,,,,,,,,,,,,,,,,,,,,,
107769,2023-11-06_12h57.42.982,two_step_task_legacy,2022.2.4,Win32,59.97720866,23,learning,0,resources/alien2_norm.png,0.493981228,resources/alien1_norm.png,0.627316779,TRUE,TRUE,3,0.325546361,red,m,0.1506,alien1,TRUE,2,0.101779067,24,1,0.627316779,m,0.1464,0,34,34,34,1,0.627316779,0.493981228,0.59000377,0.495749277,TRUE,,,,,,,,,,,,,,,,,,,,,,,,,,,,,,,,,
107769,2023-11-06_12h57.42.982,two_step_task_legacy,2022.2.4,Win32,59.97720866,23,learning,0,resources/alien2_norm.png,0.477218043,resources/alien1_norm.png,0.598288248,TRUE,TRUE,3,0.332120432,red,m,0.1798,alien1,TRUE,2,0.538222405,25,1,0.598288248,m,0.1338,0,35,35,35,1,0.598288248,0.477218043,0.553937559,0.524611694,TRUE,,,,,,,,,,,,,,,,,,,,,,,,,,,,,,,,,
107769,2023-11-06_12h57.42.982,two_step_task_legacy,2022.2.4,Win32,59.97720866,23,learning,0,resources/alien1_norm.png,0.614262045,resources/alien2_norm.png,0.493000476,TRUE,TRUE,3,0.58563367,red,m,0.1269,alien2,TRUE,3,0.914475436,25,0,0.493000476,m,0.0617,0,36,36,36,1,0.614262045,0.493000476,0.56908871,0.543066073,FALSE,,,,,,,,,,,,,,,,,,,,,,,,,,,,,,,,,
107769,2023-11-06_12h57.42.982,two_step_task_legacy,2022.2.4,Win32,59.97720866,23,learning,1,resources/alien4_norm.png,0.50431812,resources/alien3_norm.png,0.558161717,TRUE,TRUE,2,0.907087278,purple,m,0.0668,alien3,TRUE,2,0.306540406,26,1,0.558161717,m,0.1064,0,37,37,37,1,0.604854621,0.477881014,0.558161717,0.50431812,TRUE,,,,,,,,,,,,,,,,,,,,,,,,,,,,,,,,,
107769,2023-11-06_12h57.42.982,two_step_task_legacy,2022.2.4,Win32,59.97720866,23,learning,0,resources/alien2_norm.png,0.534531278,resources/alien1_norm.png,0.588574075,TRUE,TRUE,3,0.083387935,red,m,0.5837,alien1,TRUE,3,0.816899841,26,0,0.588574075,m,0.0549,0,38,38,38,1,0.588574075,0.534531278,0.530772143,0.52797049,TRUE,,,,,,,,,,,,,,,,,,,,,,,,,,,,,,,,,
107769,2023-11-06_12h57.42.982,two_step_task_legacy,2022.2.4,Win32,59.97720866,23,learning,0,resources/alien1_norm.png,0.595909038,resources/alien2_norm.png,0.531132777,TRUE,TRUE,3,0.392883257,red,m,0.1958,alien2,TRUE,3,0.533793955,26,0,0.531132777,m,0.0209,0,39,39,39,1,0.595909038,0.531132777,0.540735318,0.557222525,FALSE,,,,,,,,,,,,,,,,,,,,,,,,,,,,,,,,,
107769,2023-11-06_12h57.42.982,two_step_task_legacy,2022.2.4,Win32,59.97720866,23,learning,0,resources/alien1_norm.png,0.574771467,resources/alien2_norm.png,0.540223528,TRUE,TRUE,3,0.41383833,red,m,0.0839,alien2,TRUE,2,0.506490991,27,1,0.540223528,m,0.0717,0,40,40,40,1,0.574771467,0.540223528,0.494666279,0.583638711,FALSE,,,,,,,,,,,,,,,,,,,,,,,,,,,,,,,,,
107769,2023-11-06_12h57.42.982,two_step_task_legacy,2022.2.4,Win32,59.97720866,23,learning,0,resources/alien1_norm.png,0.584272001,resources/alien2_norm.png,0.559165838,TRUE,TRUE,3,0.022909156,red,m,0.0084,alien2,TRUE,2,0.316279987,28,1,0.559165838,m,0.0836,0,41,41,41,1,0.584272001,0.559165838,0.50627781,0.5945859,FALSE,,,,,,,,,,,,,,,,,,,,,,,,,,,,,,,,,
107769,2023-11-06_12h57.42.982,two_step_task_legacy,2022.2.4,Win32,59.97720866,23,learning,0,resources/alien1_norm.png,0.630034319,resources/alien2_norm.png,0.617175123,TRUE,TRUE,3,0.58623931,red,m,0.108,alien2,TRUE,3,0.889777201,28,0,0.617175123,m,0.1721,0,42,42,42,1,0.630034319,0.617175123,0.516590823,0.640132819,FALSE,,,,,,,,,,,,,,,,,,,,,,,,,,,,,,,,,
107769,2023-11-06_12h57.42.982,two_step_task_legacy,2022.2.4,Win32,59.97720866,23,learning,1,resources/alien2_norm.png,0.616003092,resources/alien1_norm.png,0.619075687,TRUE,TRUE,3,0.992113296,red,x,0.1839,alien2,TRUE,2,0.084013229,29,1,0.616003092,x,0.134,0,43,43,43,1,0.619075687,0.616003092,0.487932716,0.607580451,TRUE,,,,,,,,,,,,,,,,,,,,,,,,,,,,,,,,,
107769,2023-11-06_12h57.42.982,two_step_task_legacy,2022.2.4,Win32,59.97720866,23,learning,1,resources/alien1_norm.png,0.605356515,resources/alien2_norm.png,0.582526972,TRUE,TRUE,3,0.891644841,red,x,0.734,alien1,TRUE,3,0.663947623,29,0,0.605356515,x,0.1635,0,44,44,44,1,0.605356515,0.582526972,0.519583753,0.572653625,FALSE,,,,,,,,,,,,,,,,,,,,,,,,,,,,,,,,,
107769,2023-11-06_12h57.42.982,two_step_task_legacy,2022.2.4,Win32,59.97720866,23,learning,0,,,,,FALSE,FALSE,2,0.683315741,red,,,,,,,,,,,,0,45,45,45,1,0.557081221,0.577200294,0.511061951,0.574858948,FALSE,,,,,,,,,,,,,,,,,,,,,,,,,,,,,,,,,
107769,2023-11-06_12h57.42.982,two_step_task_legacy,2022.2.4,Win32,59.97720866,23,learning,0,resources/alien1_norm.png,0.555291304,resources/alien2_norm.png,0.598845262,TRUE,TRUE,3,0.094719663,red,m,1.7683,alien2,TRUE,2,0.474105574,30,1,0.598845262,m,0.2027,0,46,46,46,1,0.555291304,0.598845262,0.532871987,0.595061916,FALSE,,,,,,,,,,,,,,,,,,,,,,,,,,,,,,,,,
107769,2023-11-06_12h57.42.982,two_step_task_legacy,2022.2.4,Win32,59.97720866,23,learning,0,resources/alien1_norm.png,0.578601924,resources/alien2_norm.png,0.598532069,TRUE,TRUE,3,0.347583798,red,m,0.0259,alien2,TRUE,2,0.562784516,31,1,0.598532069,m,0.1002,0,47,47,47,1,0.578601924,0.598532069,0.529726075,0.585828111,FALSE,,,,,,,,,,,,,,,,,,,,,,,,,,,,,,,,,
107769,2023-11-06_12h57.42.982,two_step_task_legacy,2022.2.4,Win32,59.97720866,23,learning,1,resources/alien3_norm.png,0.558730333,resources/alien4_norm.png,0.573653694,TRUE,TRUE,2,0.71389085,purple,m,0.1337,alien4,TRUE,2,0.114471344,32,1,0.573653694,m,0.0336,0,48,48,48,1,0.542249819,0.586538679,0.558730333,0.573653694,FALSE,,,,,,,,,,,,,,,,,,,,,,,,,,,,,,,,,
107769,2023-11-06_12h57.42.982,two_step_task_legacy,2022.2.4,Win32,59.97720866,23,learning,0,resources/alien1_norm.png,0.519538965,resources/alien2_norm.png,0.584343304,TRUE,TRUE,3,0.141357608,red,m,0.065,alien2,TRUE,2,0.425033013,33,1,0.584343304,m,0.0502,0,49,49,49,1,0.519538965,0.584343304,0.622833908,0.600621292,FALSE,,,,,,,,,,,,,,,,,,,,,,,,,,,,,,,,,
107769,2023-11-06_12h57.42.982,two_step_task_legacy,2022.2.4,Win32,59.97720866,23,learning,0,resources/alien3_norm.png,0.620348506,resources/alien4_norm.png,0.607356483,TRUE,TRUE,2,0.320454133,purple,x,0.3337,alien3,TRUE,2,0.229392769,34,1,0.620348506,x,0.6852,0,50,50,50,1,0.554572557,0.581709677,0.620348506,0.607356483,FALSE,,,,,,,,,,,,,,,,,,,,,,,,,,,,,,,,,
107769,2023-11-06_12h57.42.982,two_step_task_legacy,2022.2.4,Win32,59.97720866,23,learning,1,resources/alien1_norm.png,0.547889004,resources/alien2_norm.png,0.612718726,TRUE,TRUE,3,0.907164634,red,x,0.0172,alien2,TRUE,3,0.925017028,34,0,0.612718726,m,2.0662,0,51,51,51,1,0.547889004,0.612718726,0.6031703,0.607009894,FALSE,,,,,,,,,,,,,,,,,,,,,,,,,,,,,,,,,
107769,2023-11-06_12h57.42.982,two_step_task_legacy,2022.2.4,Win32,59.97720866,23,learning,0,resources/alien2_norm.png,0.595407189,resources/alien1_norm.png,0.544060582,TRUE,TRUE,3,0.224461823,red,m,0.1174,alien1,TRUE,3,0.84935618,34,0,0.544060582,m,1.7503,0,52,52,52,1,0.544060582,0.595407189,0.557769273,0.588840226,TRUE,,,,,,,,,,,,,,,,,,,,,,,,,,,,,,,,,
107769,2023-11-06_12h57.42.982,two_step_task_legacy,2022.2.4,Win32,59.97720866,23,learning,0,resources/alien4_norm.png,0.626166645,resources/alien3_norm.png,0.542082465,TRUE,TRUE,2,0.51049845,purple,x,0.2112,alien4,TRUE,3,0.910136306,34,0,0.626166645,x,0.2866,0,53,53,53,1,0.545266218,0.593072845,0.542082465,0.626166645,TRUE,,,,,,,,,,,,,,,,,,,,,,,,,,,,,,,,,
107769,2023-11-06_12h57.42.982,two_step_task_legacy,2022.2.4,Win32,59.97720866,23,learning,0,resources/alien3_norm.png,0.542691053,resources/alien4_norm.png,0.641639284,TRUE,TRUE,2,0.604316943,purple,x,0.1168,alien3,TRUE,3,0.596394171,34,0,0.542691053,x,0.0167,0,54,54,54,1,0.533636761,0.617187035,0.542691053,0.641639284,FALSE,,,,,,,,,,,,,,,,,,,,,,,,,,,,,,,,,
107769,2023-11-06_12h57.42.982,two_step_task_legacy,2022.2.4,Win32,59.97720866,23,learning,0,resources/alien3_norm.png,0.540688793,resources/alien4_norm.png,0.613630346,TRUE,TRUE,2,0.287374889,purple,x,1.0507,alien3,TRUE,2,0.375354253,35,1,0.540688793,x,0.1676,0,55,55,55,1,0.53071874,0.642883939,0.540688793,0.613630346,FALSE,,,,,,,,,,,,,,,,,,,,,,,,,,,,,,,,,
107769,2023-11-06_12h57.42.982,two_step_task_legacy,2022.2.4,Win32,59.97720866,23,learning,0,resources/alien4_norm.png,0.604506511,resources/alien3_norm.png,0.506133513,TRUE,TRUE,2,0.586345047,purple,x,0.0665,alien4,TRUE,2,0.510152871,36,1,0.604506511,x,0.1171,0,56,56,56,1,0.508540082,0.642374716,0.506133513,0.604506511,TRUE,,,,,,,,,,,,,,,,,,,,,,,,,,,,,,,,,
107769,2023-11-06_12h57.42.982,two_step_task_legacy,2022.2.4,Win32,59.97720866,23,learning,1,resources/alien2_norm.png,0.646260215,resources/alien1_norm.png,0.519337081,TRUE,TRUE,3,0.787619098,red,x,0.1356,alien2,TRUE,2,0.131505062,37,1,0.646260215,x,0.2535,0,57,57,57,1,0.519337081,0.646260215,0.531679577,0.600516429,TRUE,,,,,,,,,,,,,,,,,,,,,,,,,,,,,,,,,
107769,2023-11-06_12h57.42.982,two_step_task_legacy,2022.2.4,Win32,59.97720866,23,learning,0,resources/alien3_norm.png,0.525737079,resources/alien4_norm.png,0.596579648,TRUE,TRUE,2,0.202340824,purple,x,0.1674,alien3,TRUE,2,0.36772803,38,1,0.525737079,x,0.2161,0,58,58,58,1,0.515119314,0.644987866,0.525737079,0.596579648,FALSE,,,,,,,,,,,,,,,,,,,,,,,,,,,,,,,,,
107769,2023-11-06_12h57.42.982,two_step_task_legacy,2022.2.4,Win32,59.97720866,23,learning,0,resources/alien4_norm.png,0.600256718,resources/alien3_norm.png,0.535111942,TRUE,TRUE,2,0.648447609,purple,x,0.1168,alien4,TRUE,2,0.333944759,39,1,0.600256718,x,0.0841,0,59,59,59,1,0.482207563,0.621644772,0.535111942,0.600256718,TRUE,,,,,,,,,,,,,,,,,,,,,,,,,,,,,,,,,
107769,2023-11-06_12h57.42.982,two_step_task_legacy,2022.2.4,Win32,59.97720866,23,learning,1,resources/alien1_norm.png,0.450055305,resources/alien2_norm.png,0.66669687,TRUE,TRUE,3,0.952487231,red,x,0.1332,alien1,TRUE,2,0.160493322,40,1,0.450055305,x,1.7835,0,60,60,60,1,0.450055305,0.66669687,0.514338736,0.607153047,FALSE,,,,,,,,,,,,,,,,,,,,,,,,,,,,,,,,,
107769,2023-11-06_12h57.42.982,two_step_task_legacy,2022.2.4,Win32,59.97720866,23,learning,0,resources/alien3_norm.png,0.471642866,resources/alien4_norm.png,0.583823796,TRUE,TRUE,2,0.241333354,purple,x,0.284,alien3,TRUE,3,0.476385644,40,0,0.471642866,x,0.3167,0,61,61,61,1,0.419368289,0.658101899,0.471642866,0.583823796,FALSE,,,,,,,,,,,,,,,,,,,,,,,,,,,,,,,,,
107769,2023-11-06_12h57.42.982,two_step_task_legacy,2022.2.4,Win32,59.97720866,23,learning,0,resources/alien4_norm.png,0.577391808,resources/alien3_norm.png,0.495383864,TRUE,TRUE,2,0.159259608,purple,x,0.1227,alien4,TRUE,2,0.133987242,41,1,0.577391808,x,0.2692,0,62,62,62,1,0.476081837,0.679582459,0.495383864,0.577391808,TRUE,,,,,,,,,,,,,,,,,,,,,,,,,,,,,,,,,
107769,2023-11-06_12h57.42.982,two_step_task_legacy,2022.2.4,Win32,59.97720866,23,learning,1,resources/alien2_norm.png,0.656019472,resources/alien1_norm.png,0.46564135,TRUE,TRUE,3,0.809714648,red,x,0.0666,alien2,TRUE,2,0.589749752,42,1,0.656019472,x,0.2003,0,63,63,63,1,0.46564135,0.656019472,0.492482455,0.584382346,TRUE,,,,,,,,,,,,,,,,,,,,,,,,,,,,,,,,,
107769,2023-11-06_12h57.42.982,two_step_task_legacy,2022.2.4,Win32,59.97720866,23,learning,1,resources/alien1_norm.png,0.477315304,resources/alien2_norm.png,0.650679566,TRUE,TRUE,3,0.975799772,red,x,0.034,alien1,TRUE,3,0.508660655,42,0,0.477315304,x,0.2432,0,64,64,64,1,0.477315304,0.650679566,0.473090091,0.579903099,FALSE,,,,,,,,,,,,,,,,,,,,,,,,,,,,,,,,,
107769,2023-11-06_12h57.42.982,two_step_task_legacy,2022.2.4,Win32,59.97720866,23,learning,0,resources/alien3_norm.png,0.46600528,resources/alien4_norm.png,0.57197952,TRUE,TRUE,2,0.346579807,purple,x,0.2299,alien3,TRUE,3,0.720709846,42,0,0.46600528,x,0.0496,0,65,65,65,1,0.46552265,0.62334515,0.46600528,0.57197952,FALSE,,,,,,,,,,,,,,,,,,,,,,,,,,,,,,,,,
107769,2023-11-06_12h57.42.982,two_step_task_legacy,2022.2.4,Win32,59.97720866,23,learning,0,resources/alien4_norm.png,0.610089415,resources/alien3_norm.png,0.423812817,TRUE,TRUE,2,0.334140147,purple,x,0.3506,alien4,TRUE,2,0.088665483,43,1,0.610089415,x,0.3337,0,66,66,66,1,0.475612123,0.625851031,0.423812817,0.610089415,TRUE,,,,,,,,,,,,,,,,,,,,,,,,,,,,,,,,,
107769,2023-11-06_12h57.42.982,two_step_task_legacy,2022.2.4,Win32,59.97720866,23,learning,0,resources/alien3_norm.png,0.389156213,resources/alien4_norm.png,0.604504253,TRUE,TRUE,2,0.552329994,purple,x,0.1002,alien3,TRUE,3,0.960989646,43,0,0.389156213,x,0.3005,0,67,67,67,1,0.488225722,0.591916813,0.389156213,0.604504253,FALSE,,,,,,,,,,,,,,,,,,,,,,,,,,,,,,,,,
107769,2023-11-06_12h57.42.982,two_step_task_legacy,2022.2.4,Win32,59.97720866,23,learning,0,resources/alien4_norm.png,0.600400303,resources/alien3_norm.png,0.426911286,TRUE,TRUE,2,0.445560698,purple,x,0.0294,alien4,TRUE,3,0.953619056,43,0,0.600400303,x,0.0455,0,68,68,68,1,0.447473516,0.566650103,0.426911286,0.600400303,TRUE,,,,,,,,,,,,,,,,,,,,,,,,,,,,,,,,,
107769,2023-11-06_12h57.42.982,two_step_task_legacy,2022.2.4,Win32,59.97720866,23,learning,1,resources/alien2_norm.png,0.601017704,resources/alien1_norm.png,0.446833039,TRUE,TRUE,3,0.900226519,red,x,0.0836,alien2,TRUE,2,0.536779953,44,1,0.601017704,x,0.3668,0,69,69,69,1,0.446833039,0.601017704,0.419171163,0.645762646,TRUE,,,,,,,,,,,,,,,,,,,,,,,,,,,,,,,,,
107769,2023-11-06_12h57.42.982,two_step_task_legacy,2022.2.4,Win32,59.97720866,23,learning,0,resources/alien4_norm.png,0.679798258,resources/alien3_norm.png,0.381881382,TRUE,TRUE,2,0.232290069,purple,x,0.6336,alien4,TRUE,2,0.579897064,45,1,0.679798258,x,0.1673,0,70,70,70,1,0.46229688,0.577212844,0.381881382,0.679798258,TRUE,,,,,,,,,,,,,,,,,,,,,,,,,,,,,,,,,
107769,2023-11-06_12h57.42.982,two_step_task_legacy,2022.2.4,Win32,59.97720866,23,learning,0,resources/alien4_norm.png,0.744246282,resources/alien3_norm.png,0.372866063,TRUE,TRUE,2,0.164284649,purple,x,0.1469,alien4,TRUE,2,0.110963301,46,1,0.744246282,x,0.2664,0,71,71,71,1,0.447857256,0.585168326,0.372866063,0.744246282,TRUE,,,,,,,,,,,,,,,,,,,,,,,,,,,,,,,,,
107769,2023-11-06_12h57.42.982,two_step_task_legacy,2022.2.4,Win32,59.97720866,23,learning,0,resources/alien4_norm.png,0.738925901,resources/alien3_norm.png,0.365658811,TRUE,TRUE,2,0.048627642,purple,x,0.2007,alien4,TRUE,2,0.608496493,47,1,0.738925901,x,0.1268,0,72,72,72,1,0.469156344,0.590253845,0.365658811,0.738925901,TRUE,,,,,,,,,,,,,,,,,,,,,,,,,,,,,,,,,
107769,2023-11-06_12h57.42.982,two_step_task_legacy,2022.2.4,Win32,59.97720866,23,learning,0,resources/alien1_norm.png,0.524386296,resources/alien2_norm.png,0.606410566,TRUE,TRUE,3,0.473226658,red,m,0.0831,alien2,TRUE,2,0.209961753,48,1,0.606410566,m,0.1162,0,73,73,73,1,0.524386296,0.606410566,0.368495441,0.745967699,FALSE,,,,,,,,,,,,,,,,,,,,,,,,,,,,,,,,,
107769,2023-11-06_12h57.42.982,two_step_task_legacy,2022.2.4,Win32,59.97720866,23,learning,0,resources/alien1_norm.png,0.546195851,resources/alien2_norm.png,0.610187899,TRUE,TRUE,3,0.635889283,red,m,0.4677,alien2,TRUE,2,0.390445704,49,1,0.610187899,m,0.4337,0,74,74,74,1,0.546195851,0.610187899,0.382592524,0.747056302,FALSE,,,,,,,,,,,,,,,,,,,,,,,,,,,,,,,,,
107769,2023-11-06_12h57.42.982,two_step_task_legacy,2022.2.4,Win32,59.97720866,23,learning,1,resources/alien4_norm.png,0.727966599,resources/alien3_norm.png,0.365808589,TRUE,TRUE,2,0.882604853,purple,m,0.2507,alien3,TRUE,3,0.562300689,49,0,0.365808589,m,0.174,0,75,75,75,1,0.516674318,0.630410906,0.365808589,0.727966599,TRUE,,,,,,,,,,,,,,,,,,,,,,,,,,,,,,,,,
107769,2023-11-06_12h57.42.982,two_step_task_legacy,2022.2.4,Win32,59.97720866,23,learning,1,resources/alien4_norm.png,0.747496672,resources/alien3_norm.png,0.376049182,TRUE,TRUE,2,0.833222476,purple,m,0.1671,alien3,TRUE,3,0.769750073,49,0,0.376049182,m,0.0503,0,76,76,76,1,0.513333865,0.600336462,0.376049182,0.747496672,TRUE,,,,,,,,,,,,,,,,,,,,,,,,,,,,,,,,,
107769,2023-11-06_12h57.42.982,two_step_task_legacy,2022.2.4,Win32,59.97720866,23,learning,1,resources/alien3_norm.png,0.366792972,resources/alien4_norm.png,0.743468027,TRUE,TRUE,2,0.77863286,purple,m,0.2672,alien4,TRUE,2,0.657824476,50,1,0.743468027,m,0.4505,0,77,77,77,1,0.533414093,0.616695744,0.366792972,0.743468027,FALSE,,,,,,,,,,,,,,,,,,,,,,,,,,,,,,,,,
107769,2023-11-06_12h57.42.982,two_step_task_legacy,2022.2.4,Win32,59.97720866,23,learning,0,resources/alien2_norm.png,0.626472856,resources/alien1_norm.png,0.522426186,TRUE,TRUE,3,0.58755326,red,m,0.0337,alien1,TRUE,2,0.460720813,51,1,0.522426186,m,0.3669,0,78,78,78,1,0.522426186,0.626472856,0.342893528,0.729281693,TRUE,,,,,,,,,,,,,,,,,,,,,,,,,,,,,,,,,
107769,2023-11-06_12h57.42.982,two_step_task_legacy,2022.2.4,Win32,59.97720866,23,learning,0,resources/alien1_norm.png,0.537512346,resources/alien2_norm.png,0.612363775,TRUE,TRUE,3,0.155022951,red,m,0.2169,alien2,TRUE,2,0.163713036,52,1,0.612363775,m,0.4506,0,79,79,79,1,0.537512346,0.612363775,0.328275201,0.732241262,FALSE,,,,,,,,,,,,,,,,,,,,,,,,,,,,,,,,,
107769,2023-11-06_12h57.42.982,two_step_task_legacy,2022.2.4,Win32,59.97720866,23,learning,0,resources/alien2_norm.png,0.646040762,resources/alien1_norm.png,0.564643748,TRUE,TRUE,3,0.581170989,red,m,0.1842,alien1,TRUE,2,0.151776029,53,1,0.564643748,m,0.067,0,80,80,80,1,0.564643748,0.646040762,0.339910551,0.703847115,TRUE,,,,,,,,,,,,,,,,,,,,,,,,,,,,,,,,,
107769,2023-11-06_12h57.42.982,two_step_task_legacy,2022.2.4,Win32,59.97720866,23,learning,0,resources/alien1_norm.png,0.574339547,resources/alien2_norm.png,0.667820554,TRUE,TRUE,3,0.666924607,red,m,0.117,alien2,TRUE,2,0.03171772,54,1,0.667820554,m,0.1671,0,81,81,81,1,0.574339547,0.667820554,0.355880374,0.713459204,FALSE,,,,,,,,,,,,,,,,,,,,,,,,,,,,,,,,,
107769,2023-11-06_12h57.42.982,two_step_task_legacy,2022.2.4,Win32,59.97720866,23,learning,0,resources/alien1_norm.png,0.55697673,resources/alien2_norm.png,0.698602971,TRUE,TRUE,3,0.336502904,red,m,0.3672,alien2,TRUE,2,0.534378986,55,1,0.698602971,m,0.3339,0,82,82,82,1,0.55697673,0.698602971,0.383992384,0.723108132,FALSE,,,,,,,,,,,,,,,,,,,,,,,,,,,,,,,,,
107769,2023-11-06_12h57.42.982,two_step_task_legacy,2022.2.4,Win32,59.97720866,23,learning,0,resources/alien2_norm.png,0.688535499,resources/alien1_norm.png,0.520995768,TRUE,TRUE,3,0.071963048,red,m,2.3023,alien1,TRUE,3,0.928901251,55,0,0.520995768,m,0.067,0,83,83,83,1,0.520995768,0.688535499,0.388691416,0.74849031,TRUE,,,,,,,,,,,,,,,,,,,,,,,,,,,,,,,,,
107769,2023-11-06_12h57.42.982,two_step_task_legacy,2022.2.4,Win32,59.97720866,23,learning,0,resources/alien1_norm.png,0.560357955,resources/alien2_norm.png,0.710364652,TRUE,TRUE,3,0.168240765,red,m,0.0842,alien2,TRUE,3,0.762971165,55,0,0.710364652,m,0.2402,0,84,84,84,1,0.560357955,0.710364652,0.394471814,0.708470458,FALSE,,,,,,,,,,,,,,,,,,,,,,,,,,,,,,,,,
107769,2023-11-06_12h57.42.982,two_step_task_legacy,2022.2.4,Win32,59.97720866,23,learning,0,resources/alien2_norm.png,0.694563603,resources/alien1_norm.png,0.642492048,TRUE,TRUE,3,0.569347319,red,m,0.167,alien2,TRUE,2,0.399515177,56,1,0.694563603,x,0.8518,0,85,85,85,1,0.642492048,0.694563603,0.366165455,0.701290951,TRUE,,,,,,,,,,,,,,,,,,,,,,,,,,,,,,,,,
107769,2023-11-06_12h57.42.982,two_step_task_legacy,2022.2.4,Win32,59.97720866,23,learning,0,resources/alien4_norm.png,0.68653895,resources/alien3_norm.png,0.339851899,TRUE,TRUE,2,0.057789799,purple,x,0.0174,alien4,TRUE,2,0.071236429,57,1,0.68653895,x,0.1835,0,86,86,86,1,0.659827268,0.693119638,0.339851899,0.68653895,TRUE,,,,,,,,,,,,,,,,,,,,,,,,,,,,,,,,,
107769,2023-11-06_12h57.42.982,two_step_task_legacy,2022.2.4,Win32,59.97720866,23,learning,0,resources/alien3_norm.png,0.344034175,resources/alien4_norm.png,0.714890726,TRUE,TRUE,2,0.691554985,purple,x,0.1181,alien4,TRUE,3,0.824832372,57,0,0.714890726,m,0.0169,0,87,87,87,1,0.662335746,0.693358738,0.344034175,0.714890726,FALSE,,,,,,,,,,,,,,,,,,,,,,,,,,,,,,,,,
107769,2023-11-06_12h57.42.982,two_step_task_legacy,2022.2.4,Win32,59.97720866,23,learning,1,resources/alien3_norm.png,0.317764846,resources/alien4_norm.png,0.686498284,TRUE,TRUE,2,0.82945248,purple,m,0.067,alien4,TRUE,2,0.639732795,58,1,0.686498284,m,0.2335,0,88,88,88,1,0.654953403,0.711283868,0.317764846,0.686498284,FALSE,,,,,,,,,,,,,,,,,,,,,,,,,,,,,,,,,
107769,2023-11-06_12h57.42.982,two_step_task_legacy,2022.2.4,Win32,59.97720866,23,learning,0,resources/alien1_norm.png,0.616516022,resources/alien2_norm.png,0.696475853,TRUE,TRUE,3,0.148510494,red,m,0.067,alien2,TRUE,3,0.943387205,58,0,0.696475853,m,0.1783,0,89,89,89,1,0.616516022,0.696475853,0.351001491,0.679595828,FALSE,,,,,,,,,,,,,,,,,,,,,,,,,,,,,,,,,
107769,2023-11-06_12h57.42.982,two_step_task_legacy,2022.2.4,Win32,59.97720866,23,learning,1,resources/alien2_norm.png,0.712975203,resources/alien1_norm.png,0.617393134,TRUE,TRUE,3,0.794596805,red,x,0.3937,alien2,TRUE,2,0.150807513,59,1,0.712975203,x,0.1334,0,90,90,90,1,0.617393134,0.712975203,0.333950803,0.65457047,TRUE,,,,,,,,,,,,,,,,,,,,,,,,,,,,,,,,,
107769,2023-11-06_12h57.42.982,two_step_task_legacy,2022.2.4,Win32,59.97720866,23,learning,0,resources/alien1_norm.png,0.605248488,resources/alien2_norm.png,0.727979256,TRUE,TRUE,3,0.676298887,red,m,0.1088,alien1,TRUE,3,0.895031027,59,0,0.605248488,x,0.1003,0,91,91,91,1,0.605248488,0.727979256,0.333164568,0.68681226,FALSE,,,,,,,,,,,,,,,,,,,,,,,,,,,,,,,,,
107769,2023-11-06_12h57.42.982,two_step_task_legacy,2022.2.4,Win32,59.97720866,23,learning,0,resources/alien4_norm.png,0.695375305,resources/alien3_norm.png,0.335050717,TRUE,TRUE,2,0.178585577,purple,x,0.0004,alien4,TRUE,2,0.129386653,60,1,0.695375305,x,0.0672,0,92,92,92,1,0.597920866,0.710049944,0.335050717,0.695375305,TRUE,,,,,,,,,,,,,,,,,,,,,,,,,,,,,,,,,
107769,2023-11-06_12h57.42.982,two_step_task_legacy,2022.2.4,Win32,59.97720866,23,learning,0,resources/alien4_norm.png,0.705704451,resources/alien3_norm.png,0.361676132,TRUE,TRUE,2,0.040529016,purple,x,0.2002,alien4,TRUE,3,0.782453047,60,0,0.705704451,x,0.0841,0,93,93,93,1,0.570087701,0.695892733,0.361676132,0.705704451,TRUE,,,,,,,,,,,,,,,,,,,,,,,,,,,,,,,,,
107769,2023-11-06_12h57.42.982,two_step_task_legacy,2022.2.4,Win32,59.97720866,23,learning,0,resources/alien3_norm.png,0.335318237,resources/alien4_norm.png,0.711789496,TRUE,TRUE,2,0.412365397,purple,x,0.1505,alien3,TRUE,3,0.390434832,60,0,0.335318237,x,0.3003,0,94,94,94,1,0.529720036,0.708120691,0.335318237,0.711789496,FALSE,,,,,,,,,,,,,,,,,,,,,,,,,,,,,,,,,
107769,2023-11-06_12h57.42.982,two_step_task_legacy,2022.2.4,Win32,59.97720866,23,learning,0,resources/alien4_norm.png,0.682412233,resources/alien3_norm.png,0.398221116,TRUE,TRUE,2,0.047716144,purple,x,0.2168,alien4,TRUE,2,0.400550966,61,1,0.682412233,x,0.3832,0,95,95,95,1,0.47635657,0.721500672,0.398221116,0.682412233,TRUE,,,,,,,,,,,,,,,,,,,,,,,,,,,,,,,,,
107769,2023-11-06_12h57.42.982,two_step_task_legacy,2022.2.4,Win32,59.97720866,23,learning,1,resources/alien1_norm.png,0.466179965,resources/alien2_norm.png,0.715414355,TRUE,TRUE,3,0.938616917,red,x,0.2505,alien1,TRUE,2,0.19538982,62,1,0.466179965,x,0.0004,0,96,96,96,1,0.466179965,0.715414355,0.401364405,0.649304922,FALSE,,,,,,,,,,,,,,,,,,,,,,,,,,,,,,,,,
107769,2023-11-06_12h57.42.982,two_step_task_legacy,2022.2.4,Win32,59.97720866,23,learning,0,resources/alien3_norm.png,0.396988401,resources/alien4_norm.png,0.645948713,TRUE,TRUE,2,0.003562899,purple,x,0.1669,alien3,TRUE,2,0.120968601,63,1,0.396988401,x,0.062,0,97,97,97,1,0.467126539,0.723595882,0.396988401,0.645948713,FALSE,,,,,,,,,,,,,,,,,,,,,,,,,,,,,,,,,
107769,2023-11-06_12h57.42.982,two_step_task_legacy,2022.2.4,Win32,59.97720866,23,learning,0,resources/alien3_norm.png,0.433219326,resources/alien4_norm.png,0.668586832,TRUE,TRUE,2,0.381362378,purple,x,0.0506,alien3,TRUE,3,0.829707106,63,0,0.433219326,x,0.1676,0,98,98,98,1,0.439790307,0.696269276,0.433219326,0.668586832,FALSE,,,,,,,,,,,,,,,,,,,,,,,,,,,,,,,,,
107769,2023-11-06_12h57.42.982,two_step_task_legacy,2022.2.4,Win32,59.97720866,23,learning,0,resources/alien4_norm.png,0.680060197,resources/alien3_norm.png,0.442086132,TRUE,TRUE,2,0.233402795,purple,x,0.067,alien4,TRUE,2,0.310705021,64,1,0.680060197,x,0.4005,0,99,99,99,1,0.464800643,0.659724849,0.442086132,0.680060197,TRUE,,,,,,,,,,,,,,,,,,,,,,,,,,,,,,,,,
107769,2023-11-06_12h57.42.982,two_step_task_legacy,2022.2.4,Win32,59.97720866,23,learning,0,resources/alien4_norm.png,0.688821162,resources/alien3_norm.png,0.432642845,TRUE,TRUE,2,0.606597535,purple,x,0.067,alien4,TRUE,3,0.724218181,64,0,0.688821162,x,1.1139,0,100,100,100,1,0.453655036,0.648409952,0.432642845,0.688821162,TRUE,,,,,,,,,,,,,,,,,,,,,,,,,,,,,,,,,
107769,2023-11-06_12h57.42.982,two_step_task_legacy,2022.2.4,Win32,59.97720866,23,learning,1,resources/alien1_norm.png,0.480154937,resources/alien2_norm.png,0.66099901,TRUE,TRUE,3,0.700660058,red,x,0.4175,alien1,TRUE,3,0.623260687,64,0,0.480154937,x,0.1665,0,101,101,101,1,0.480154937,0.66099901,0.452743872,0.655063209,FALSE,,,,,,,,,,,,,,,,,,,,,,,,,,,,,,,,,
107769,2023-11-06_12h57.42.982,two_step_task_legacy,2022.2.4,Win32,59.97720866,23,learning,0,resources/alien3_norm.png,0.456887081,resources/alien4_norm.png,0.675596743,TRUE,TRUE,2,0.534479098,purple,x,0.1741,alien3,TRUE,3,0.565167371,64,0,0.456887081,x,0.1172,0,102,102,102,1,0.435064291,0.686802619,0.456887081,0.675596743,FALSE,,,,,,,,,,,,,,,,,,,,,,,,,,,,,,,,,
107769,2023-11-06_12h57.42.982,two_step_task_legacy,2022.2.4,Win32,59.97720866,23,learning,0,resources/alien2_norm.png,0.689975019,resources/alien1_norm.png,0.4274682,TRUE,TRUE,3,0.616210285,red,m,0.0664,alien1,TRUE,3,0.630384049,64,0,0.4274682,m,0.0337,0,103,103,103,1,0.4274682,0.689975019,0.437649181,0.728894923,TRUE,,,,,,,,,,,,,,,,,,,,,,,,,,,,,,,,,
107769,2023-11-06_12h57.42.982,two_step_task_legacy,2022.2.4,Win32,59.97720866,23,learning,0,resources/alien1_norm.png,0.394205489,resources/alien2_norm.png,0.723807258,TRUE,TRUE,3,0.395483059,red,m,0.0102,alien2,TRUE,2,0.170075886,65,1,0.723807258,m,0.1338,0,104,104,104,1,0.394205489,0.723807258,0.448066099,0.744590341,FALSE,,,,,,,,,,,,,,,,,,,,,,,,,,,,,,,,,
107769,2023-11-06_12h57.42.982,two_step_task_legacy,2022.2.4,Win32,59.97720866,23,learning,1,resources/alien4_norm.png,0.723819794,resources/alien3_norm.png,0.485443502,TRUE,TRUE,2,0.921096998,purple,m,0.9338,alien3,TRUE,3,0.542398964,65,0,0.485443502,m,0.0666,0,105,105,105,1,0.37371153,0.742093466,0.485443502,0.723819794,TRUE,,,,,,,,,,,,,,,,,,,,,,,,,,,,,,,,,
107769,2023-11-06_12h57.42.982,two_step_task_legacy,2022.2.4,Win32,59.97720866,23,learning,0,resources/alien2_norm.png,0.734634343,resources/alien1_norm.png,0.349275118,TRUE,TRUE,3,0.198755065,red,m,0.284,alien1,TRUE,3,0.987968954,65,0,0.349275118,m,0.0178,0,106,106,106,1,0.349275118,0.734634343,0.478530119,0.67031434,TRUE,,,,,,,,,,,,,,,,,,,,,,,,,,,,,,,,,
107769,2023-11-06_12h57.42.982,two_step_task_legacy,2022.2.4,Win32,59.97720866,23,learning,1,resources/alien4_norm.png,0.709673268,resources/alien3_norm.png,0.495373807,TRUE,TRUE,2,0.972440745,purple,m,0.0238,alien3,TRUE,2,0.419762663,66,1,0.495373807,m,0.1838,0,107,107,107,1,0.35021253,0.718841441,0.495373807,0.709673268,TRUE,,,,,,,,,,,,,,,,,,,,,,,,,,,,,,,,,
107769,2023-11-06_12h57.42.982,two_step_task_legacy,2022.2.4,Win32,59.97720866,23,learning,1,resources/alien4_norm.png,0.731898862,resources/alien3_norm.png,0.450735795,TRUE,TRUE,2,0.932159005,purple,m,0.6995,alien4,TRUE,2,0.10099907,67,1,0.731898862,x,1.8003,0,108,108,108,1,0.337348022,0.676963284,0.450735795,0.731898862,TRUE,,,,,,,,,,,,,,,,,,,,,,,,,,,,,,,,,
107769,2023-11-06_12h57.42.982,two_step_task_legacy,2022.2.4,Win32,59.97720866,23,learning,1,resources/alien4_norm.png,0.74430369,resources/alien3_norm.png,0.480315234,TRUE,TRUE,2,0.982011085,purple,m,1.5107,alien3,TRUE,2,0.427955217,68,1,0.480315234,m,0.0135,0,109,109,109,1,0.322911322,0.662157072,0.480315234,0.74430369,TRUE,,,,,,,,,,,,,,,,,,,,,,,,,,,,,,,,,
107769,2023-11-06_12h57.42.982,two_step_task_legacy,2022.2.4,Win32,59.97720866,23,learning,1,resources/alien4_norm.png,0.7400153,resources/alien3_norm.png,0.477745384,TRUE,TRUE,2,0.725936435,purple,m,0.0005,alien3,TRUE,2,0.029277185,69,1,0.477745384,m,0.0838,0,110,110,110,1,0.323042006,0.729054729,0.477745384,0.7400153,TRUE,,,,,,,,,,,,,,,,,,,,,,,,,,,,,,,,,
107769,2023-11-06_12h57.42.982,two_step_task_legacy,2022.2.4,Win32,59.97720866,23,learning,0,resources/alien1_norm.png,0.346977723,resources/alien2_norm.png,0.717049686,TRUE,TRUE,3,0.403365117,red,m,0.1837,alien2,TRUE,2,0.127202064,70,1,0.717049686,m,0.0835,0,111,111,111,1,0.346977723,0.717049686,0.502964312,0.740528536,FALSE,,,,,,,,,,,,,,,,,,,,,,,,,,,,,,,,,
107769,2023-11-06_12h57.42.982,two_step_task_legacy,2022.2.4,Win32,59.97720866,23,learning,0,resources/alien4_norm.png,0.746181252,resources/alien3_norm.png,0.560076847,TRUE,TRUE,2,0.610395772,purple,x,0.2008,alien4,TRUE,2,0.640375748,71,1,0.746181252,x,0.5502,0,112,112,112,1,0.332641057,0.710505866,0.560076847,0.746181252,TRUE,,,,,,,,,,,,,,,,,,,,,,,,,,,,,,,,,
107769,2023-11-06_12h57.42.982,two_step_task_legacy,2022.2.4,Win32,59.97720866,23,learning,0,resources/alien3_norm.png,0.551953466,resources/alien4_norm.png,0.737084193,TRUE,TRUE,2,0.342437793,purple,x,0.3,alien3,TRUE,2,0.295283765,72,1,0.551953466,x,0.0172,0,113,113,113,1,0.329582244,0.713556046,0.551953466,0.737084193,FALSE,,,,,,,,,,,,,,,,,,,,,,,,,,,,,,,,,
107769,2023-11-06_12h57.42.982,two_step_task_legacy,2022.2.4,Win32,59.97720866,23,learning,0,resources/alien3_norm.png,0.54581186,resources/alien4_norm.png,0.722210778,TRUE,TRUE,2,0.283425371,purple,x,0.1734,alien3,TRUE,2,0.460547026,73,1,0.54581186,x,0.2506,0,114,114,114,1,0.300863762,0.698255739,0.54581186,0.722210778,FALSE,,,,,,,,,,,,,,,,,,,,,,,,,,,,,,,,,
107769,2023-11-06_12h57.42.982,two_step_task_legacy,2022.2.4,Win32,59.97720866,23,learning,0,resources/alien4_norm.png,0.744852234,resources/alien3_norm.png,0.527422928,TRUE,TRUE,2,0.627055599,purple,x,0.1337,alien4,TRUE,2,0.450049359,74,1,0.744852234,x,0.2333,0,115,115,115,1,0.335585272,0.683609207,0.527422928,0.744852234,TRUE,,,,,,,,,,,,,,,,,,,,,,,,,,,,,,,,,
107769,2023-11-06_12h57.42.982,two_step_task_legacy,2022.2.4,Win32,59.97720866,23,learning,0,resources/alien4_norm.png,0.710357088,resources/alien3_norm.png,0.529277885,TRUE,TRUE,2,0.407712666,purple,x,0.1005,alien4,TRUE,2,0.697827776,75,1,0.710357088,x,0.1128,0,116,116,116,1,0.358671417,0.690248802,0.529277885,0.710357088,TRUE,,,,,,,,,,,,,,,,,,,,,,,,,,,,,,,,,
107769,2023-11-06_12h57.42.982,two_step_task_legacy,2022.2.4,Win32,59.97720866,23,learning,1,resources/alien1_norm.png,0.395365799,resources/alien2_norm.png,0.718538292,TRUE,TRUE,3,0.749281096,red,x,0.0838,alien1,TRUE,3,0.622463294,75,0,0.395365799,x,0.1004,0,117,117,117,1,0.395365799,0.718538292,0.547665382,0.724019431,FALSE,,,,,,,,,,,,,,,,,,,,,,,,,,,,,,,,,
107769,2023-11-06_12h57.42.982,two_step_task_legacy,2022.2.4,Win32,59.97720866,23,learning,0,resources/alien4_norm.png,0.74235091,resources/alien3_norm.png,0.542102089,TRUE,TRUE,2,0.592759695,purple,x,0.2338,alien4,TRUE,2,0.387670567,76,1,0.74235091,x,0.1665,0,118,118,118,1,0.384016558,0.721594268,0.542102089,0.74235091,TRUE,,,,,,,,,,,,,,,,,,,,,,,,,,,,,,,,,
107769,2023-11-06_12h57.42.982,two_step_task_legacy,2022.2.4,Win32,59.97720866,23,learning,0,resources/alien4_norm.png,0.742572012,resources/alien3_norm.png,0.527099802,TRUE,TRUE,2,0.184801204,purple,x,0.0672,alien4,TRUE,3,0.84963281,76,0,0.742572012,x,0.0343,0,119,119,119,1,0.379194304,0.706850908,0.527099802,0.742572012,TRUE,,,,,,,,,,,,,,,,,,,,,,,,,,,,,,,,,
107769,2023-11-06_12h57.42.982,two_step_task_legacy,2022.2.4,Win32,59.97720866,23,learning,0,resources/alien3_norm.png,0.497453415,resources/alien4_norm.png,0.747849489,TRUE,TRUE,2,0.230844355,purple,x,0.0674,alien3,TRUE,3,0.57114666,76,0,0.497453415,x,0.0148,0,120,120,120,1,0.311589413,0.742746316,0.497453415,0.747849489,FALSE,,,,,,,,,,,,,,,,,,,,,,,,,,,,,,,,,
107769,2023-11-06_12h57.42.982,two_step_task_legacy,2022.2.4,Win32,59.97720866,23,learning,0,resources/alien3_norm.png,0.493636211,resources/alien4_norm.png,0.732948846,TRUE,TRUE,2,0.408855767,purple,x,0.1831,alien3,TRUE,3,0.858050243,76,0,0.493636211,x,0.2502,0,121,121,121,1,0.288613638,0.734331013,0.493636211,0.732948846,FALSE,,,,,,,,,,,,,,,,,,,,,,,,,,,,,,,,,
107769,2023-11-06_12h57.42.982,two_step_task_legacy,2022.2.4,Win32,59.97720866,23,learning,1,resources/alien2_norm.png,0.735030185,resources/alien1_norm.png,0.327163232,TRUE,TRUE,3,0.723282819,red,x,0.0339,alien2,TRUE,3,0.979213547,76,0,0.735030185,x,0.217,0,122,122,122,1,0.327163232,0.735030185,0.458718952,0.712748711,TRUE,,,,,,,,,,,,,,,,,,,,,,,,,,,,,,,,,
107769,2023-11-06_12h57.42.982,two_step_task_legacy,2022.2.4,Win32,59.97720866,23,learning,1,resources/alien1_norm.png,0.325553926,resources/alien2_norm.png,0.735188606,TRUE,TRUE,3,0.834024261,red,x,0.1664,alien1,TRUE,2,0.036581534,77,1,0.325553926,x,0.0181,0,123,123,123,1,0.325553926,0.735188606,0.414123906,0.707920788,FALSE,,,,,,,,,,,,,,,,,,,,,,,,,,,,,,,,,
107769,2023-11-06_12h57.42.982,two_step_task_legacy,2022.2.4,Win32,59.97720866,23,learning,0,resources/alien3_norm.png,0.358787311,resources/alien4_norm.png,0.719523144,TRUE,TRUE,2,0.451953612,purple,x,0.2833,alien3,TRUE,2,0.124033498,78,1,0.358787311,x,0.2501,0,124,124,124,1,0.332284924,0.728011457,0.358787311,0.719523144,FALSE,,,,,,,,,,,,,,,,,,,,,,,,,,,,,,,,,
107769,2023-11-06_12h57.42.982,two_step_task_legacy,2022.2.4,Win32,59.97720866,23,learning,0,resources/alien3_norm.png,0.400002364,resources/alien4_norm.png,0.736399527,TRUE,TRUE,2,0.067558108,purple,x,0.1997,alien3,TRUE,3,0.729408229,78,0,0.400002364,x,0.1166,0,125,125,125,1,0.326093405,0.695840729,0.400002364,0.736399527,FALSE,,,,,,,,,,,,,,,,,,,,,,,,,,,,,,,,,
107769,2023-11-06_12h57.42.982,two_step_task_legacy,2022.2.4,Win32,59.97720866,23,learning,0,resources/alien4_norm.png,0.734764761,resources/alien3_norm.png,0.427141787,TRUE,TRUE,2,0.347778195,purple,x,0.6505,alien4,TRUE,3,0.897298458,78,0,0.734764761,x,0.0337,0,126,126,126,1,0.323930204,0.660568372,0.427141787,0.734764761,TRUE,,,,,,,,,,,,,,,,,,,,,,,,,,,,,,,,,
107769,2023-11-06_12h57.42.982,two_step_task_legacy,2022.2.4,Win32,59.97720866,23,learning,0,resources/alien3_norm.png,0.427069701,resources/alien4_norm.png,0.72143708,TRUE,TRUE,2,0.567771099,purple,x,0.4899,alien3,TRUE,3,0.676519376,78,0,0.427069701,x,0.217,0,127,127,127,1,0.340229983,0.647692248,0.427069701,0.72143708,FALSE,,,,,,,,,,,,,,,,,,,,,,,,,,,,,,,,,
107769,2023-11-06_12h57.42.982,two_step_task_legacy,2022.2.4,Win32,59.97720866,23,learning,0,resources/alien3_norm.png,0.40499619,resources/alien4_norm.png,0.744385778,TRUE,TRUE,2,0.415100416,purple,x,0.167,alien3,TRUE,3,0.892773267,78,0,0.40499619,x,0.1503,0,128,128,128,1,0.338813549,0.630816083,0.40499619,0.744385778,FALSE,,,,,,,,,,,,,,,,,,,,,,,,,,,,,,,,,
107769,2023-11-06_12h57.42.982,two_step_task_legacy,2022.2.4,Win32,59.97720866,23,learning,0,resources/alien4_norm.png,0.724357321,resources/alien3_norm.png,0.444389232,TRUE,TRUE,2,0.258830523,purple,x,0.534,alien4,TRUE,3,0.781083033,78,0,0.724357321,x,0.0511,0,129,129,129,1,0.336434737,0.661989018,0.444389232,0.724357321,TRUE,,,,,,,,,,,,,,,,,,,,,,,,,,,,,,,,,
107769,2023-11-06_12h57.42.982,two_step_task_legacy,2022.2.4,Win32,59.97720866,23,learning,0,resources/alien4_norm.png,0.730204744,resources/alien3_norm.png,0.428715926,TRUE,TRUE,2,0.259348486,purple,x,0.2834,alien4,TRUE,2,0.619207633,79,1,0.730204744,x,0.1673,0,130,130,130,1,0.290559274,0.672971781,0.428715926,0.730204744,TRUE,,,,,,,,,,,,,,,,,,,,,,,,,,,,,,,,,
107769,2023-11-06_12h57.42.982,two_step_task_legacy,2022.2.4,Win32,59.97720866,23,learning,0,resources/alien3_norm.png,0.426712563,resources/alien4_norm.png,0.736924708,TRUE,TRUE,2,0.41307875,purple,x,0.234,alien3,TRUE,2,0.099525205,80,1,0.426712563,x,0.0004,0,131,131,131,1,0.316122369,0.620277314,0.426712563,0.736924708,FALSE,,,,,,,,,,,,,,,,,,,,,,,,,,,,,,,,,
107769,2023-11-06_12h57.42.982,two_step_task_legacy,2022.2.4,Win32,59.97720866,23,learning,0,resources/alien4_norm.png,0.745455893,resources/alien3_norm.png,0.428806971,TRUE,TRUE,2,0.210349592,purple,x,0.1504,alien4,TRUE,3,0.775049677,80,0,0.745455893,x,0.2511,0,132,132,132,1,0.351537647,0.634556363,0.428806971,0.745455893,TRUE,,,,,,,,,,,,,,,,,,,,,,,,,,,,,,,,,
107769,2023-11-06_12h57.42.982,two_step_task_legacy,2022.2.4,Win32,59.97720866,23,learning,0,resources/alien3_norm.png,0.393697106,resources/alien4_norm.png,0.746235282,TRUE,TRUE,2,0.354662974,purple,x,0.2003,alien3,TRUE,2,0.390375852,81,1,0.393697106,x,0.1837,0,133,133,133,1,0.36337083,0.630455363,0.393697106,0.746235282,FALSE,,,,,,,,,,,,,,,,,,,,,,,,,,,,,,,,,
107769,2023-11-06_12h57.42.982,two_step_task_legacy,2022.2.4,Win32,59.97720866,23,learning,0,resources/alien4_norm.png,0.744542488,resources/alien3_norm.png,0.40193756,TRUE,TRUE,2,0.13421048,purple,x,0.2005,alien4,TRUE,3,0.905129152,81,0,0.744542488,x,0.1172,0,134,134,134,1,0.391533394,0.629464294,0.40193756,0.744542488,TRUE,,,,,,,,,,,,,,,,,,,,,,,,,,,,,,,,,
107769,2023-11-06_12h57.42.982,two_step_task_legacy,2022.2.4,Win32,59.97720866,23,learning,0,resources/alien4_norm.png,0.715176093,resources/alien3_norm.png,0.393998803,TRUE,TRUE,2,0.239231941,purple,x,0.7927,alien4,TRUE,2,0.127216098,82,1,0.715176093,x,0.017,0,135,135,135,1,0.369719776,0.638245617,0.393998803,0.715176093,TRUE,,,,,,,,,,,,,,,,,,,,,,,,,,,,,,,,,
107769,2023-11-06_12h57.42.982,two_step_task_legacy,2022.2.4,Win32,59.97720866,23,learning,0,resources/alien3_norm.png,0.413754202,resources/alien4_norm.png,0.707095008,TRUE,TRUE,2,0.675850116,purple,x,0.2339,alien3,TRUE,3,0.774842774,82,0,0.413754202,x,0.3169,0,136,136,136,1,0.366198559,0.649511756,0.413754202,0.707095008,FALSE,,,,,,,,,,,,,,,,,,,,,,,,,,,,,,,,,
107769,2023-11-06_12h57.42.982,two_step_task_legacy,2022.2.4,Win32,59.97720866,23,learning,0,resources/alien3_norm.png,0.397718097,resources/alien4_norm.png,0.712484856,TRUE,TRUE,2,0.106131248,purple,x,0.1335,alien3,TRUE,2,0.391283122,83,1,0.397718097,x,0.3673,0,137,137,137,1,0.382888211,0.652072629,0.397718097,0.712484856,FALSE,,,,,,,,,,,,,,,,,,,,,,,,,,,,,,,,,
107769,2023-11-06_12h57.42.982,two_step_task_legacy,2022.2.4,Win32,59.97720866,23,learning,0,resources/alien4_norm.png,0.693717942,resources/alien3_norm.png,0.403132479,TRUE,TRUE,2,0.600802171,purple,x,0.1164,alien4,TRUE,2,0.212292289,84,1,0.693717942,x,1.3007,0,138,138,138,1,0.343581066,0.668249043,0.403132479,0.693717942,TRUE,,,,,,,,,,,,,,,,,,,,,,,,,,,,,,,,,
107769,2023-11-06_12h57.42.982,two_step_task_legacy,2022.2.4,Win32,59.97720866,23,learning,0,resources/alien3_norm.png,0.435461559,resources/alien4_norm.png,0.688514127,TRUE,TRUE,2,0.37746296,purple,x,1.1676,alien3,TRUE,2,0.225332074,85,1,0.435461559,x,0.0841,0,139,139,139,1,0.363838317,0.672524194,0.435461559,0.688514127,FALSE,,,,,,,,,,,,,,,,,,,,,,,,,,,,,,,,,
107769,2023-11-06_12h57.42.982,two_step_task_legacy,2022.2.4,Win32,59.97720866,23,learning,0,resources/alien4_norm.png,0.693632034,resources/alien3_norm.png,0.439845091,TRUE,TRUE,2,0.60978386,purple,x,0.1118,alien4,TRUE,2,0.116317,86,1,0.693632034,x,0.2292,0,140,140,140,1,0.379344852,0.710972025,0.439845091,0.693632034,TRUE,,,,,,,,,,,,,,,,,,,,,,,,,,,,,,,,,
107769,2023-11-06_12h57.42.982,two_step_task_legacy,2022.2.4,Win32,59.97720866,23,learning,0,resources/alien3_norm.png,0.431317014,resources/alien4_norm.png,0.69214813,TRUE,TRUE,2,0.509182336,purple,x,0.0022,alien3,TRUE,3,0.803938666,86,0,0.431317014,x,0.2336,0,141,141,141,1,0.373374152,0.729873496,0.431317014,0.69214813,FALSE,,,,,,,,,,,,,,,,,,,,,,,,,,,,,,,,,
107769,2023-11-06_12h57.42.982,two_step_task_legacy,2022.2.4,Win32,59.97720866,23,learning,0,resources/alien4_norm.png,0.674123188,resources/alien3_norm.png,0.452030427,TRUE,TRUE,2,0.342490088,purple,x,0.2453,alien4,TRUE,2,0.069373792,87,1,0.674123188,x,0.0674,0,142,142,142,1,0.390669051,0.716383606,0.452030427,0.674123188,TRUE,,,,,,,,,,,,,,,,,,,,,,,,,,,,,,,,,
107769,2023-11-06_12h57.42.982,two_step_task_legacy,2022.2.4,Win32,59.97720866,23,learning,0,resources/alien4_norm.png,0.639333921,resources/alien3_norm.png,0.442360919,TRUE,TRUE,2,0.502604219,purple,x,0.0671,alien4,TRUE,2,0.392076964,88,1,0.639333921,x,0.1071,0,143,143,143,1,0.339477736,0.744969912,0.442360919,0.639333921,TRUE,,,,,,,,,,,,,,,,,,,,,,,,,,,,,,,,,
107769,2023-11-06_12h57.42.982,two_step_task_legacy,2022.2.4,Win32,59.97720866,23,learning,0,resources/alien4_norm.png,0.612593584,resources/alien3_norm.png,0.42051828,TRUE,TRUE,2,0.152587505,purple,x,0.1508,alien4,TRUE,2,0.540245746,89,1,0.612593584,x,0.6166,0,144,144,144,1,0.317803938,0.710844956,0.42051828,0.612593584,TRUE,,,,,,,,,,,,,,,,,,,,,,,,,,,,,,,,,
107769,2023-11-06_12h57.42.982,two_step_task_legacy,2022.2.4,Win32,59.97720866,23,learning,0,resources/alien4_norm.png,0.635215037,resources/alien3_norm.png,0.446044137,TRUE,TRUE,2,0.469925145,purple,x,0.1006,none,FALSE,NA,,89,0,0.612593584,,,0,145,145,145,1,0.311104109,0.746481624,0.446044137,0.635215037,TRUE,,,,,,,,,,,,,,,,,,,,,,,,,,,,,,,,,
107769,2023-11-06_12h57.42.982,two_step_task_legacy,2022.2.4,Win32,59.97720866,23,learning,0,,,,,FALSE,FALSE,2,0.137909629,purple,,,,,,,,,,,,0,146,146,146,1,0.322435636,0.748817246,0.457400821,0.626838599,FALSE,,,,,,,,,,,,,,,,,,,,,,,,,,,,,,,,,
107769,2023-11-06_12h57.42.982,two_step_task_legacy,2022.2.4,Win32,59.97720866,23,learning,1,resources/alien1_norm.png,0.311003061,resources/alien2_norm.png,0.708845948,TRUE,TRUE,3,0.772782877,red,x,0.2671,alien1,TRUE,3,0.899947882,89,0,0.311003061,x,0.4338,0,147,147,147,1,0.311003061,0.708845948,0.444423405,0.604796627,FALSE,,,,,,,,,,,,,,,,,,,,,,,,,,,,,,,,,
107769,2023-11-06_12h57.42.982,two_step_task_legacy,2022.2.4,Win32,59.97720866,23,learning,1,resources/alien2_norm.png,0.709213445,resources/alien1_norm.png,0.323921279,TRUE,TRUE,3,0.89136872,red,x,1.3007,alien2,TRUE,2,0.087545643,90,1,0.709213445,x,0.1009,0,148,148,148,1,0.323921279,0.709213445,0.466381219,0.575008043,TRUE,,,,,,,,,,,,,,,,,,,,,,,,,,,,,,,,,
107769,2023-11-06_12h57.42.982,two_step_task_legacy,2022.2.4,Win32,59.97720866,23,learning,1,resources/alien2_norm.png,0.703134316,resources/alien1_norm.png,0.320184667,TRUE,TRUE,3,0.759113453,red,x,0.2505,alien2,TRUE,2,0.213016258,91,1,0.703134316,x,0.3331,0,149,149,149,1,0.320184667,0.703134316,0.42955844,0.581290383,TRUE,,,,,,,,,,,,,,,,,,,,,,,,,,,,,,,,,
107769,2023-11-06_12h57.42.982,two_step_task_legacy,2022.2.4,Win32,59.97720866,23,learning,1,resources/alien2_norm.png,0.7,resources/alien1_norm.png,0.3,TRUE,TRUE,3,0.778162027,red,x,0.4173,alien2,TRUE,3,0.877766617,91,0,0.7,x,0.05,0,150,150,150,1,0.3,0.7,0.4,0.6,TRUE,,,,,,,,,,,,,,,,,,,,,,,,,,,,,,,,,
107769,2023-11-06_12h57.42.982,two_step_task_legacy,2022.2.4,Win32,59.97720866,23,learning,0,resources/alien4_norm.png,0.6,resources/alien3_norm.png,0.4,TRUE,TRUE,2,0.187274341,purple,x,1.2331,alien4,TRUE,2,0.388445338,92,1,0.6,x,0.1674,0,151,151,151,1,0.3,0.7,0.4,0.6,TRUE,,,,,,,,,,,,,,,,,,,,,,,,,,,,,,,,,
107769,2023-11-06_12h57.42.982,two_step_task_legacy,2022.2.4,Win32,59.97720866,23,learning,0,resources/alien3_norm.png,0.4,resources/alien4_norm.png,0.6,TRUE,TRUE,2,0.06214741,purple,x,0.1505,alien3,TRUE,3,0.444213404,92,0,0.4,x,0.367,0,152,152,152,1,0.3,0.7,0.4,0.6,FALSE,,,,,,,,,,,,,,,,,,,,,,,,,,,,,,,,,
107769,2023-11-06_12h57.42.982,two_step_task_legacy,2022.2.4,Win32,59.97720866,23,learning,1,resources/alien1_norm.png,0.3,resources/alien2_norm.png,0.7,TRUE,TRUE,3,0.792219246,red,x,0.5659,alien1,TRUE,3,0.782468849,92,0,0.3,x,0.5001,0,153,153,153,1,0.3,0.7,0.4,0.6,FALSE,,,,,,,,,,,,,,,,,,,,,,,,,,,,,,,,,
107769,2023-11-06_12h57.42.982,two_step_task_legacy,2022.2.4,Win32,59.97720866,23,learning,0,resources/alien3_norm.png,0.4,resources/alien4_norm.png,0.6,TRUE,TRUE,2,0.652475673,purple,x,0.2671,alien3,TRUE,2,0.055502818,93,1,0.4,x,0.1335,0,154,154,154,1,0.3,0.7,0.4,0.6,FALSE,,,,,,,,,,,,,,,,,,,,,,,,,,,,,,,,,
107769,2023-11-06_12h57.42.982,two_step_task_legacy,2022.2.4,Win32,59.97720866,23,learning,1,resources/alien1_norm.png,0.3,resources/alien2_norm.png,0.7,TRUE,TRUE,3,0.939129752,red,x,0.1603,alien1,TRUE,3,0.447827524,93,0,0.3,x,0.1333,0,155,155,155,1,0.3,0.7,0.4,0.6,FALSE,,,,,,,,,,,,,,,,,,,,,,,,,,,,,,,,,
107769,2023-11-06_12h57.42.982,two_step_task_legacy,2022.2.4,Win32,59.97720866,23,learning,0,resources/alien4_norm.png,0.6,resources/alien3_norm.png,0.4,TRUE,TRUE,2,0.183279952,purple,x,0.0336,alien4,TRUE,3,0.873788537,93,0,0.6,x,0.2508,0,156,156,156,1,0.3,0.7,0.4,0.6,TRUE,,,,,,,,,,,,,,,,,,,,,,,,,,,,,,,,,
107769,2023-11-06_12h57.42.982,two_step_task_legacy,2022.2.4,Win32,59.97720866,23,learning,1,resources/alien1_norm.png,0.3,resources/alien2_norm.png,0.7,TRUE,TRUE,3,0.880849131,red,x,0.1996,alien1,TRUE,3,0.528094617,93,0,0.3,x,0.3004,0,157,157,157,1,0.3,0.7,0.4,0.6,FALSE,,,,,,,,,,,,,,,,,,,,,,,,,,,,,,,,,
107769,2023-11-06_12h57.42.982,two_step_task_legacy,2022.2.4,Win32,59.97720866,23,learning,0,resources/alien3_norm.png,0.4,resources/alien4_norm.png,0.6,TRUE,TRUE,2,0.277093664,purple,x,0.0335,alien3,TRUE,3,0.875597135,93,0,0.4,x,0.2336,0,158,158,158,1,0.3,0.7,0.4,0.6,FALSE,,,,,,,,,,,,,,,,,,,,,,,,,,,,,,,,,
107769,2023-11-06_12h57.42.982,two_step_task_legacy,2022.2.4,Win32,59.97720866,23,learning,0,resources/alien4_norm.png,0.6,resources/alien3_norm.png,0.4,TRUE,TRUE,2,0.225433066,purple,x,0.1971,alien4,TRUE,2,0.029218301,94,1,0.6,x,0.1337,0,159,159,159,1,0.3,0.7,0.4,0.6,TRUE,,,,,,,,,,,,,,,,,,,,,,,,,,,,,,,,,
107769,2023-11-06_12h57.42.982,two_step_task_legacy,2022.2.4,Win32,59.97720866,23,learning,1,resources/alien1_norm.png,0.3,resources/alien2_norm.png,0.7,TRUE,TRUE,3,0.785593387,red,x,0.2506,alien1,TRUE,3,0.344702671,94,0,0.3,x,0.0669,0,160,160,160,1,0.3,0.7,0.4,0.6,FALSE,,,,,,,,,,,,,,,,,,,,,,,,,,,,,,,,,
107769,2023-11-06_12h57.42.982,two_step_task_legacy,2022.2.4,Win32,59.97720866,23,learning,0,resources/alien4_norm.png,0.6,resources/alien3_norm.png,0.4,TRUE,TRUE,2,0.023417824,purple,x,0.2674,alien4,TRUE,3,0.993982111,94,0,0.6,x,0.3337,0,161,161,161,1,0.3,0.7,0.4,0.6,TRUE,,,,,,,,,,,,,,,,,,,,,,,,,,,,,,,,,
107769,2023-11-06_12h57.42.982,two_step_task_legacy,2022.2.4,Win32,59.97720866,23,learning,0,resources/alien3_norm.png,0.4,resources/alien4_norm.png,0.6,TRUE,TRUE,2,0.695359503,purple,x,0.0504,alien3,TRUE,3,0.978164281,94,0,0.4,x,0.2504,0,162,162,162,1,0.3,0.7,0.4,0.6,FALSE,,,,,,,,,,,,,,,,,,,,,,,,,,,,,,,,,
107769,2023-11-06_12h57.42.982,two_step_task_legacy,2022.2.4,Win32,59.97720866,23,learning,0,resources/alien3_norm.png,0.4,resources/alien4_norm.png,0.6,TRUE,TRUE,2,0.110515395,purple,x,2.5345,alien3,TRUE,2,0.100745678,95,1,0.4,x,0.1837,0,163,163,163,1,0.3,0.7,0.4,0.6,FALSE,,,,,,,,,,,,,,,,,,,,,,,,,,,,,,,,,
107769,2023-11-06_12h57.42.982,two_step_task_legacy,2022.2.4,Win32,59.97720866,23,learning,1,resources/alien1_norm.png,0.3,resources/alien2_norm.png,0.7,TRUE,TRUE,3,0.73003909,red,x,0.0007,alien1,TRUE,3,0.760842965,95,0,0.3,x,0.1667,0,164,164,164,1,0.3,0.7,0.4,0.6,FALSE,,,,,,,,,,,,,,,,,,,,,,,,,,,,,,,,,
107769,2023-11-06_12h57.42.982,two_step_task_legacy,2022.2.4,Win32,59.97720866,23,learning,0,resources/alien3_norm.png,0.4,resources/alien4_norm.png,0.6,TRUE,TRUE,2,0.446368222,purple,x,0.2525,alien3,TRUE,3,0.513974929,95,0,0.4,x,0.1497,0,165,165,165,1,0.3,0.7,0.4,0.6,FALSE,,,,,,,,,,,,,,,,,,,,,,,,,,,,,,,,,
107769,2023-11-06_12h57.42.982,two_step_task_legacy,2022.2.4,Win32,59.97720866,23,learning,1,resources/alien2_norm.png,0.7,resources/alien1_norm.png,0.3,TRUE,TRUE,3,0.941874385,red,x,1.0507,alien2,TRUE,2,0.610241763,96,1,0.7,x,1.7505,0,166,166,166,1,0.3,0.7,0.4,0.6,TRUE,,,,,,,,,,,,,,,,,,,,,,,,,,,,,,,,,
107769,2023-11-06_12h57.42.982,two_step_task_legacy,2022.2.4,Win32,59.97720866,23,learning,0,resources/alien3_norm.png,0.4,resources/alien4_norm.png,0.6,TRUE,TRUE,2,0.137015022,purple,x,0.5616,alien3,TRUE,2,0.396714908,97,1,0.4,x,0.1833,0,167,167,167,1,0.3,0.7,0.4,0.6,FALSE,,,,,,,,,,,,,,,,,,,,,,,,,,,,,,,,,
107769,2023-11-06_12h57.42.982,two_step_task_legacy,2022.2.4,Win32,59.97720866,23,learning,0,resources/alien3_norm.png,0.4,resources/alien4_norm.png,0.6,TRUE,TRUE,2,0.254740838,purple,x,1.3672,alien3,TRUE,3,0.635354224,97,0,0.4,x,0.4169,0,168,168,168,1,0.3,0.7,0.4,0.6,FALSE,,,,,,,,,,,,,,,,,,,,,,,,,,,,,,,,,
107769,2023-11-06_12h57.42.982,two_step_task_legacy,2022.2.4,Win32,59.97720866,23,learning,0,resources/alien4_norm.png,0.6,resources/alien3_norm.png,0.4,TRUE,TRUE,2,0.602194962,purple,x,0.7667,alien4,TRUE,2,0.416526713,98,1,0.6,x,0.0505,0,169,169,169,1,0.3,0.7,0.4,0.6,TRUE,,,,,,,,,,,,,,,,,,,,,,,,,,,,,,,,,
107769,2023-11-06_12h57.42.982,two_step_task_legacy,2022.2.4,Win32,59.97720866,23,learning,1,resources/alien2_norm.png,0.7,resources/alien1_norm.png,0.3,TRUE,TRUE,3,0.737533128,red,x,0.0004,alien2,TRUE,2,0.604998863,99,1,0.7,x,0.2004,0,170,170,170,1,0.3,0.7,0.4,0.6,TRUE,,,,,,,,,,,,,,,,,,,,,,,,,,,,,,,,,
107769,2023-11-06_12h57.42.982,two_step_task_legacy,2022.2.4,Win32,59.97720866,23,learning,0,resources/alien3_norm.png,0.4,resources/alien4_norm.png,0.6,TRUE,TRUE,2,0.473360106,purple,x,0.1506,alien3,TRUE,3,0.759272591,99,0,0.4,x,0.5671,0,171,171,171,1,0.3,0.7,0.4,0.6,FALSE,,,,,,,,,,,,,,,,,,,,,,,,,,,,,,,,,
107769,2023-11-06_12h57.42.982,two_step_task_legacy,2022.2.4,Win32,59.97720866,23,learning,0,resources/alien4_norm.png,0.6,resources/alien3_norm.png,0.4,TRUE,TRUE,2,0.648606076,purple,x,0.0336,alien4,TRUE,3,0.695219378,99,0,0.6,x,1.0171,0,172,172,172,1,0.3,0.7,0.4,0.6,TRUE,,,,,,,,,,,,,,,,,,,,,,,,,,,,,,,,,
107769,2023-11-06_12h57.42.982,two_step_task_legacy,2022.2.4,Win32,59.97720866,23,learning,1,resources/alien1_norm.png,0.3,resources/alien2_norm.png,0.7,TRUE,TRUE,3,0.70459588,red,x,0.2009,alien1,TRUE,3,0.541128225,99,0,0.3,x,0.2668,0,173,173,173,1,0.3,0.7,0.4,0.6,FALSE,,,,,,,,,,,,,,,,,,,,,,,,,,,,,,,,,
107769,2023-11-06_12h57.42.982,two_step_task_legacy,2022.2.4,Win32,59.97720866,23,learning,0,resources/alien4_norm.png,0.6,resources/alien3_norm.png,0.4,TRUE,TRUE,2,0.646531177,purple,x,0.1339,alien4,TRUE,2,0.124306463,100,1,0.6,x,0.2503,0,174,174,174,1,0.3,0.7,0.4,0.6,TRUE,,,,,,,,,,,,,,,,,,,,,,,,,,,,,,,,,
107769,2023-11-06_12h57.42.982,two_step_task_legacy,2022.2.4,Win32,59.97720866,23,learning,0,resources/alien4_norm.png,0.6,resources/alien3_norm.png,0.4,TRUE,TRUE,2,0.625548256,purple,x,0.5331,alien4,TRUE,3,0.948881424,100,0,0.6,x,0.2505,0,175,175,175,1,0.3,0.7,0.4,0.6,TRUE,,,,,,,,,,,,,,,,,,,,,,,,,,,,,,,,,
107769,2023-11-06_12h57.42.982,two_step_task_legacy,2022.2.4,Win32,59.97720866,23,learning,0,resources/alien3_norm.png,0.4,resources/alien4_norm.png,0.6,TRUE,TRUE,2,0.650971765,purple,x,0.1503,alien3,TRUE,3,0.629091854,100,0,0.4,x,0.3507,0,176,176,176,1,0.3,0.7,0.4,0.6,FALSE,,,,,,,,,,,,,,,,,,,,,,,,,,,,,,,,,
107769,2023-11-06_12h57.42.982,two_step_task_legacy,2022.2.4,Win32,59.97720866,23,learning,1,resources/alien2_norm.png,0.7,resources/alien1_norm.png,0.3,TRUE,TRUE,3,0.758457276,red,x,0.7837,alien2,TRUE,2,0.686510897,101,1,0.7,x,0.4003,0,177,177,177,1,0.3,0.7,0.4,0.6,TRUE,,,,,,,,,,,,,,,,,,,,,,,,,,,,,,,,,
107769,2023-11-06_12h57.42.982,two_step_task_legacy,2022.2.4,Win32,59.97720866,23,learning,1,,,,,FALSE,FALSE,3,0.703655821,red,,,,,,,,,,,,0,178,178,178,1,0.3,0.7,0.4,0.6,TRUE,,,,,,,,,,,,,,,,,,,,,,,,,,,,,,,,,
107769,2023-11-06_12h57.42.982,two_step_task_legacy,2022.2.4,Win32,59.97720866,23,learning,1,,,,,FALSE,FALSE,3,0.866438243,red,,,,,,,,,,,,0,179,179,179,1,0.3,0.7,0.4,0.6,FALSE,,,,,,,,,,,,,,,,,,,,,,,,,,,,,,,,,
107769,2023-11-06_12h57.42.982,two_step_task_legacy,2022.2.4,Win32,59.97720866,23,learning,0,resources/alien3_norm.png,0.4,resources/alien4_norm.png,0.6,TRUE,TRUE,2,0.102266604,purple,x,0.1669,alien3,TRUE,2,0.337569305,102,1,0.4,x,0.0666,0,180,180,180,1,0.3,0.7,0.4,0.6,FALSE,,,,,,,,,,,,,,,,,,,,,,,,,,,,,,,,,
107769,2023-11-06_12h57.42.982,two_step_task_legacy,2022.2.4,Win32,59.97720866,23,learning,0,resources/alien4_norm.png,0.6,resources/alien3_norm.png,0.4,TRUE,TRUE,2,0.102790753,purple,x,0.234,alien4,TRUE,2,0.515394069,103,1,0.6,x,0.4832,0,181,181,181,1,0.3,0.7,0.4,0.6,TRUE,,,,,,,,,,,,,,,,,,,,,,,,,,,,,,,,,
107769,2023-11-06_12h57.42.982,two_step_task_legacy,2022.2.4,Win32,59.97720866,23,learning,0,resources/alien3_norm.png,0.4,resources/alien4_norm.png,0.6,TRUE,TRUE,2,0.426265592,purple,x,0.2673,none,FALSE,NA,,103,0,0.6,,,0,182,182,182,1,0.3,0.7,0.4,0.6,FALSE,,,,,,,,,,,,,,,,,,,,,,,,,,,,,,,,,
107769,2023-11-06_12h57.42.982,two_step_task_legacy,2022.2.4,Win32,59.97720866,23,learning,1,resources/alien2_norm.png,0.7,resources/alien1_norm.png,0.3,TRUE,TRUE,3,0.911109928,red,x,0.2009,alien2,TRUE,2,0.470990775,104,1,0.7,x,0.0164,0,183,183,183,1,0.3,0.7,0.4,0.6,TRUE,,,,,,,,,,,,,,,,,,,,,,,,,,,,,,,,,
107769,2023-11-06_12h57.42.982,two_step_task_legacy,2022.2.4,Win32,59.97720866,23,learning,1,resources/alien1_norm.png,0.3,resources/alien2_norm.png,0.7,TRUE,TRUE,3,0.859877861,red,x,0.0006,alien1,TRUE,2,0.165487356,105,1,0.3,x,0.4001,0,184,184,184,1,0.3,0.7,0.4,0.6,FALSE,,,,,,,,,,,,,,,,,,,,,,,,,,,,,,,,,
107769,2023-11-06_12h57.42.982,two_step_task_legacy,2022.2.4,Win32,59.97720866,23,learning,0,resources/alien3_norm.png,0.4,resources/alien4_norm.png,0.6,TRUE,TRUE,2,0.188451144,purple,x,0.1837,alien3,TRUE,3,0.602855504,105,0,0.4,x,0.2834,0,185,185,185,1,0.3,0.7,0.4,0.6,FALSE,,,,,,,,,,,,,,,,,,,,,,,,,,,,,,,,,
107769,2023-11-06_12h57.42.982,two_step_task_legacy,2022.2.4,Win32,59.97720866,23,learning,0,resources/alien3_norm.png,0.4,resources/alien4_norm.png,0.6,TRUE,TRUE,2,0.596873426,purple,x,0.3008,alien3,TRUE,3,0.417077113,105,0,0.4,x,0.5342,0,186,186,186,1,0.3,0.7,0.4,0.6,FALSE,,,,,,,,,,,,,,,,,,,,,,,,,,,,,,,,,
107769,2023-11-06_12h57.42.982,two_step_task_legacy,2022.2.4,Win32,59.97720866,23,learning,1,resources/alien1_norm.png,0.3,resources/alien2_norm.png,0.7,TRUE,TRUE,3,0.771065857,red,x,0.0839,alien1,TRUE,3,0.350338454,105,0,0.3,x,0.0006,0,187,187,187,1,0.3,0.7,0.4,0.6,FALSE,,,,,,,,,,,,,,,,,,,,,,,,,,,,,,,,,
107769,2023-11-06_12h57.42.982,two_step_task_legacy,2022.2.4,Win32,59.97720866,23,learning,0,resources/alien3_norm.png,0.4,resources/alien4_norm.png,0.6,TRUE,TRUE,2,0.522739661,purple,x,0.2337,alien3,TRUE,3,0.947194598,105,0,0.4,x,1.5666,0,188,188,188,1,0.3,0.7,0.4,0.6,FALSE,,,,,,,,,,,,,,,,,,,,,,,,,,,,,,,,,
107769,2023-11-06_12h57.42.982,two_step_task_legacy,2022.2.4,Win32,59.97720866,23,learning,1,resources/alien2_norm.png,0.7,resources/alien1_norm.png,0.3,TRUE,TRUE,3,0.845486127,red,x,0.1337,alien2,TRUE,3,0.973311165,105,0,0.7,x,0.3335,0,189,189,189,1,0.3,0.7,0.4,0.6,TRUE,,,,,,,,,,,,,,,,,,,,,,,,,,,,,,,,,
107769,2023-11-06_12h57.42.982,two_step_task_legacy,2022.2.4,Win32,59.97720866,23,learning,0,resources/alien4_norm.png,0.6,resources/alien3_norm.png,0.4,TRUE,TRUE,2,0.301017454,purple,x,0.1343,alien4,TRUE,3,0.866601755,105,0,0.6,x,0.1608,0,190,190,190,1,0.3,0.7,0.4,0.6,TRUE,,,,,,,,,,,,,,,,,,,,,,,,,,,,,,,,,
107769,2023-11-06_12h57.42.982,two_step_task_legacy,2022.2.4,Win32,59.97720866,23,learning,0,resources/alien4_norm.png,0.6,resources/alien3_norm.png,0.4,TRUE,TRUE,2,0.091332976,purple,x,0.0855,alien4,TRUE,3,0.802636269,105,0,0.6,x,0.6166,0,191,191,191,1,0.3,0.7,0.4,0.6,TRUE,,,,,,,,,,,,,,,,,,,,,,,,,,,,,,,,,
107769,2023-11-06_12h57.42.982,two_step_task_legacy,2022.2.4,Win32,59.97720866,23,learning,1,resources/alien2_norm.png,0.7,resources/alien1_norm.png,0.3,TRUE,TRUE,3,0.98558225,red,x,0.2174,alien2,TRUE,2,0.204033139,106,1,0.7,x,0.2829,0,192,192,192,1,0.3,0.7,0.4,0.6,TRUE,,,,,,,,,,,,,,,,,,,,,,,,,,,,,,,,,
107769,2023-11-06_12h57.42.982,two_step_task_legacy,2022.2.4,Win32,59.97720866,23,learning,1,resources/alien2_norm.png,0.7,resources/alien1_norm.png,0.3,TRUE,TRUE,3,0.780131943,red,x,0.4331,alien2,TRUE,3,0.721011912,106,0,0.7,x,0.1006,0,193,193,193,1,0.3,0.7,0.4,0.6,TRUE,,,,,,,,,,,,,,,,,,,,,,,,,,,,,,,,,
107769,2023-11-06_12h57.42.982,two_step_task_legacy,2022.2.4,Win32,59.97720866,23,learning,0,resources/alien4_norm.png,0.6,resources/alien3_norm.png,0.4,TRUE,TRUE,2,0.474774125,purple,x,0.0174,alien4,TRUE,2,0.5774794,107,1,0.6,x,0.2001,0,194,194,194,1,0.3,0.7,0.4,0.6,TRUE,,,,,,,,,,,,,,,,,,,,,,,,,,,,,,,,,
107769,2023-11-06_12h57.42.982,two_step_task_legacy,2022.2.4,Win32,59.97720866,23,learning,0,resources/alien3_norm.png,0.4,resources/alien4_norm.png,0.6,TRUE,TRUE,2,0.508869613,purple,x,0.1338,alien3,TRUE,3,0.993027679,107,0,0.4,x,0.1502,0,195,195,195,1,0.3,0.7,0.4,0.6,FALSE,,,,,,,,,,,,,,,,,,,,,,,,,,,,,,,,,
107769,2023-11-06_12h57.42.982,two_step_task_legacy,2022.2.4,Win32,59.97720866,23,learning,1,resources/alien2_norm.png,0.7,resources/alien1_norm.png,0.3,TRUE,TRUE,3,0.86118193,red,x,0.0504,alien2,TRUE,3,0.839732642,107,0,0.7,x,0.2002,0,196,196,196,1,0.3,0.7,0.4,0.6,TRUE,,,,,,,,,,,,,,,,,,,,,,,,,,,,,,,,,
107769,2023-11-06_12h57.42.982,two_step_task_legacy,2022.2.4,Win32,59.97720866,23,learning,0,resources/alien3_norm.png,0.4,resources/alien4_norm.png,0.6,TRUE,TRUE,2,0.144445799,purple,x,0.1668,alien3,TRUE,3,0.517001565,107,0,0.4,x,0.2331,0,197,197,197,1,0.3,0.7,0.4,0.6,FALSE,,,,,,,,,,,,,,,,,,,,,,,,,,,,,,,,,
107769,2023-11-06_12h57.42.982,two_step_task_legacy,2022.2.4,Win32,59.97720866,23,learning,0,resources/alien4_norm.png,0.6,resources/alien3_norm.png,0.4,TRUE,TRUE,2,0.422257876,purple,x,0.2338,alien4,TRUE,2,0.37163433,108,1,0.6,x,0.1775,0,198,198,198,1,0.3,0.7,0.4,0.6,TRUE,,,,,,,,,,,,,,,,,,,,,,,,,,,,,,,,,
107769,2023-11-06_12h57.42.982,two_step_task_legacy,2022.2.4,Win32,59.97720866,23,learning,0,resources/alien3_norm.png,0.4,resources/alien4_norm.png,0.6,TRUE,TRUE,2,0.308063446,purple,x,0.3006,alien3,TRUE,3,0.639076674,108,0,0.4,x,0.0496,0,199,199,199,1,0.3,0.7,0.4,0.6,FALSE,,,,,,,,,,,,,,,,,,,,,,,,,,,,,,,,,
107769,2023-11-06_12h57.42.982,two_step_task_legacy,2022.2.4,Win32,59.97720866,23,learning,0,resources/alien3_norm.png,0.4,resources/alien4_norm.png,0.6,TRUE,TRUE,2,0.359883987,purple,x,0.0841,alien3,TRUE,2,0.006205796,109,1,0.4,x,1.0665,0,200,200,200,1,0.3,0.7,0.4,0.6,FALSE,,,,,,,,,,,,,,,,,,,,,,,,,,,,,,,,,
107769,2023-11-06_12h57.42.982,two_step_task_legacy,2022.2.4,Win32,59.97720866,23,learning,1,resources/alien1_norm.png,0.3,resources/alien2_norm.png,0.7,TRUE,TRUE,3,0.75751145,red,x,0.3169,alien1,TRUE,3,0.414642294,109,0,0.3,x,0.1831,0,201,201,201,1,0.3,0.7,0.4,0.6,FALSE,,,,,,,,,,,,,,,,,,,,,,,,,,,,,,,,,
107769,2023-11-06_12h57.42.982,two_step_task_legacy,2022.2.4,Win32,59.97720866,23,learning,0,resources/alien3_norm.png,0.4,resources/alien4_norm.png,0.6,TRUE,TRUE,2,0.661001088,purple,x,0.1506,alien3,TRUE,2,0.073441484,110,1,0.4,x,0.1261,0,202,202,202,1,0.3,0.7,0.4,0.6,FALSE,,,,,,,,,,,,,,,,,,,,,,,,,,,,,,,,,
107769,2023-11-06_12h57.42.982,two_step_task_legacy,2022.2.4,Win32,59.97720866,23,learning,1,resources/alien1_norm.png,0.3,resources/alien2_norm.png,0.7,TRUE,TRUE,3,0.952724729,red,x,0.0835,alien1,TRUE,3,0.805231235,110,0,0.3,x,0.0005,0,203,203,203,1,0.3,0.7,0.4,0.6,FALSE,,,,,,,,,,,,,,,,,,,,,,,,,,,,,,,,,
107769,2023-11-06_12h57.42.982,two_step_task_legacy,2022.2.4,Win32,59.97720866,23,learning,0,resources/alien3_norm.png,0.4,resources/alien4_norm.png,0.6,TRUE,TRUE,2,0.256780325,purple,x,0.1006,alien3,TRUE,2,0.153561671,111,1,0.4,x,0.0165,0,204,204,204,1,0.3,0.7,0.4,0.6,FALSE,,,,,,,,,,,,,,,,,,,,,,,,,,,,,,,,,
107769,2023-11-06_12h57.42.982,two_step_task_legacy,2022.2.4,Win32,59.97720866,23,learning,0,resources/alien3_norm.png,0.4,resources/alien4_norm.png,0.6,TRUE,TRUE,2,0.325831915,purple,x,0.0673,alien3,TRUE,3,0.552940723,111,0,0.4,x,0.0505,0,205,205,205,1,0.3,0.7,0.4,0.6,FALSE,,,,,,,,,,,,,,,,,,,,,,,,,,,,,,,,,
107769,2023-11-06_12h57.42.982,two_step_task_legacy,2022.2.4,Win32,59.97720866,23,learning,1,resources/alien2_norm.png,0.7,resources/alien1_norm.png,0.3,TRUE,TRUE,3,0.993637458,red,x,0.0173,alien2,TRUE,2,0.609268297,112,1,0.7,x,0.067,0,206,206,206,1,0.3,0.7,0.4,0.6,TRUE,,,,,,,,,,,,,,,,,,,,,,,,,,,,,,,,,
107769,2023-11-06_12h57.42.982,two_step_task_legacy,2022.2.4,Win32,59.97720866,23,learning,1,resources/alien2_norm.png,0.7,resources/alien1_norm.png,0.3,TRUE,TRUE,3,0.79720517,red,x,0.101,alien2,TRUE,3,0.806140971,112,0,0.7,x,0.0005,0,207,207,207,1,0.3,0.7,0.4,0.6,TRUE,,,,,,,,,,,,,,,,,,,,,,,,,,,,,,,,,
107769,2023-11-06_12h57.42.982,two_step_task_legacy,2022.2.4,Win32,59.97720866,23,learning,0,resources/alien3_norm.png,0.4,resources/alien4_norm.png,0.6,TRUE,TRUE,2,0.342026274,purple,x,0.1504,alien3,TRUE,3,0.829915917,112,0,0.4,x,0.1333,0,208,208,208,1,0.3,0.7,0.4,0.6,FALSE,,,,,,,,,,,,,,,,,,,,,,,,,,,,,,,,,
107769,2023-11-06_12h57.42.982,two_step_task_legacy,2022.2.4,Win32,59.97720866,23,learning,0,resources/alien4_norm.png,0.6,resources/alien3_norm.png,0.4,TRUE,TRUE,2,0.614401951,purple,x,0.1673,alien4,TRUE,2,0.593412384,113,1,0.6,x,0.3005,0,209,209,209,1,0.3,0.7,0.4,0.6,TRUE,,,,,,,,,,,,,,,,,,,,,,,,,,,,,,,,,
107769,2023-11-06_12h57.42.982,two_step_task_legacy,2022.2.4,Win32,59.97720866,23,learning,0,resources/alien3_norm.png,0.4,resources/alien4_norm.png,0.6,TRUE,TRUE,2,0.078473821,purple,x,0.2333,alien3,TRUE,3,0.515852217,113,0,0.4,x,0.1999,0,210,210,210,1,0.3,0.7,0.4,0.6,FALSE,,,,,,,,,,,,,,,,,,,,,,,,,,,,,,,,,
107769,2023-11-06_12h57.42.982,two_step_task_legacy,2022.2.4,Win32,59.97720866,23,learning,0,resources/alien3_norm.png,0.4,resources/alien4_norm.png,0.6,TRUE,TRUE,2,0.466701138,purple,x,0.1013,alien3,TRUE,2,0.389749833,114,1,0.4,x,0.2672,0,211,211,211,1,0.3,0.7,0.4,0.6,FALSE,,,,,,,,,,,,,,,,,,,,,,,,,,,,,,,,,
107769,2023-11-06_12h57.42.982,two_step_task_legacy,2022.2.4,Win32,59.97720866,23,learning,0,resources/alien4_norm.png,0.6,resources/alien3_norm.png,0.4,TRUE,TRUE,2,0.258630793,purple,x,0.2505,alien4,TRUE,2,0.587101903,115,1,0.6,x,0.0666,0,212,212,212,1,0.3,0.7,0.4,0.6,TRUE,,,,,,,,,,,,,,,,,,,,,,,,,,,,,,,,,
107769,2023-11-06_12h57.42.982,two_step_task_legacy,2022.2.4,Win32,59.97720866,23,learning,0,resources/alien4_norm.png,0.6,resources/alien3_norm.png,0.4,TRUE,TRUE,2,0.686395107,purple,x,0.1836,alien4,TRUE,3,0.746496979,115,0,0.6,x,0.167,0,213,213,213,1,0.3,0.7,0.4,0.6,TRUE,,,,,,,,,,,,,,,,,,,,,,,,,,,,,,,,,
107769,2023-11-06_12h57.42.982,two_step_task_legacy,2022.2.4,Win32,59.97720866,23,learning,1,resources/alien2_norm.png,0.7,resources/alien1_norm.png,0.3,TRUE,TRUE,3,0.85156474,red,x,0.2339,alien2,TRUE,2,0.390305046,116,1,0.7,x,0.101,0,214,214,214,1,0.3,0.7,0.4,0.6,TRUE,,,,,,,,,,,,,,,,,,,,,,,,,,,,,,,,,
107769,2023-11-06_12h57.42.982,two_step_task_legacy,2022.2.4,Win32,59.97720866,23,learning,0,resources/alien3_norm.png,0.4,resources/alien4_norm.png,0.6,TRUE,TRUE,2,0.128183913,purple,x,0.0005,alien3,TRUE,3,0.990918487,116,0,0.4,x,0.1366,0,215,215,215,1,0.3,0.7,0.4,0.6,FALSE,,,,,,,,,,,,,,,,,,,,,,,,,,,,,,,,,
107769,2023-11-06_12h57.42.982,two_step_task_legacy,2022.2.4,Win32,59.97720866,23,learning,1,resources/alien2_norm.png,0.7,resources/alien1_norm.png,0.3,TRUE,TRUE,3,0.885680586,red,x,0.0004,alien2,TRUE,2,0.626561135,117,1,0.7,x,0.1838,0,216,216,216,1,0.3,0.7,0.4,0.6,TRUE,,,,,,,,,,,,,,,,,,,,,,,,,,,,,,,,,
107769,2023-11-06_12h57.42.982,two_step_task_legacy,2022.2.4,Win32,59.97720866,23,learning,1,resources/alien1_norm.png,0.3,resources/alien2_norm.png,0.7,TRUE,TRUE,3,0.869625522,red,x,0.1174,alien1,TRUE,3,0.439921386,117,0,0.3,x,0.1508,0,217,217,217,1,0.3,0.7,0.4,0.6,FALSE,,,,,,,,,,,,,,,,,,,,,,,,,,,,,,,,,
107769,2023-11-06_12h57.42.982,two_step_task_legacy,2022.2.4,Win32,59.97720866,23,learning,0,resources/alien4_norm.png,0.6,resources/alien3_norm.png,0.4,TRUE,TRUE,2,0.607046152,purple,x,0.0502,alien4,TRUE,2,0.107717864,118,1,0.6,x,0.0831,0,218,218,218,1,0.3,0.7,0.4,0.6,TRUE,,,,,,,,,,,,,,,,,,,,,,,,,,,,,,,,,
107769,2023-11-06_12h57.42.982,two_step_task_legacy,2022.2.4,Win32,59.97720866,23,learning,1,resources/alien2_norm.png,0.7,resources/alien1_norm.png,0.3,TRUE,TRUE,3,0.94146853,red,x,0.2512,alien2,TRUE,2,0.675297412,119,1,0.7,x,0.0495,0,219,219,219,1,0.3,0.7,0.4,0.6,TRUE,,,,,,,,,,,,,,,,,,,,,,,,,,,,,,,,,
107769,2023-11-06_12h57.42.982,two_step_task_legacy,2022.2.4,Win32,59.97720866,23,learning,0,resources/alien4_norm.png,0.6,resources/alien3_norm.png,0.4,TRUE,TRUE,2,0.599377366,purple,x,0.0505,alien4,TRUE,3,0.881642202,119,0,0.6,x,0.1504,0,220,220,220,1,0.3,0.7,0.4,0.6,TRUE,,,,,,,,,,,,,,,,,,,,,,,,,,,,,,,,,
107769,2023-11-06_12h57.42.982,two_step_task_legacy,2022.2.4,Win32,59.97720866,23,learning,0,resources/alien3_norm.png,0.4,resources/alien4_norm.png,0.6,TRUE,TRUE,2,0.232751878,purple,x,0.2344,alien3,TRUE,3,0.987418431,119,0,0.4,x,0.244,0,221,221,221,1,0.3,0.7,0.4,0.6,FALSE,,,,,,,,,,,,,,,,,,,,,,,,,,,,,,,,,
107769,2023-11-06_12h57.42.982,two_step_task_legacy,2022.2.4,Win32,59.97720866,23,learning,1,resources/alien2_norm.png,0.7,resources/alien1_norm.png,0.3,TRUE,TRUE,3,0.803812032,red,x,0.1676,alien2,TRUE,2,0.692356169,120,1,0.7,x,0.2337,0,222,222,222,1,0.3,0.7,0.4,0.6,TRUE,,,,,,,,,,,,,,,,,,,,,,,,,,,,,,,,,
107769,2023-11-06_12h57.42.982,two_step_task_legacy,2022.2.4,Win32,59.97720866,23,learning,0,resources/alien3_norm.png,0.4,resources/alien4_norm.png,0.6,TRUE,TRUE,2,0.192186153,purple,x,0.0338,alien3,TRUE,3,0.744179993,120,0,0.4,x,0.0671,0,223,223,223,1,0.3,0.7,0.4,0.6,FALSE,,,,,,,,,,,,,,,,,,,,,,,,,,,,,,,,,
107769,2023-11-06_12h57.42.982,two_step_task_legacy,2022.2.4,Win32,59.97720866,23,learning,0,resources/alien4_norm.png,0.6,resources/alien3_norm.png,0.4,TRUE,TRUE,2,0.375401728,purple,x,0.1003,alien4,TRUE,3,0.790749202,120,0,0.6,x,0.1506,0,224,224,224,1,0.3,0.7,0.4,0.6,TRUE,,,,,,,,,,,,,,,,,,,,,,,,,,,,,,,,,
107769,2023-11-06_12h57.42.982,two_step_task_legacy,2022.2.4,Win32,59.97720866,23,learning,1,resources/alien2_norm.png,0.7,resources/alien1_norm.png,0.3,TRUE,TRUE,3,0.702058566,red,x,0.0668,alien2,TRUE,2,0.269030361,121,1,0.7,x,0.1998,0,225,225,225,1,0.3,0.7,0.4,0.6,TRUE,,,,,,,,,,,,,,,,,,,,,,,,,,,,,,,,,
107769,2023-11-06_12h57.42.982,two_step_task_legacy,2022.2.4,Win32,59.97720866,23,learning,1,resources/alien2_norm.png,0.7,resources/alien1_norm.png,0.3,TRUE,TRUE,3,0.700580748,red,x,0.1674,alien2,TRUE,2,0.610358361,122,1,0.7,x,0.1834,0,226,226,226,1,0.3,0.7,0.4,0.6,TRUE,,,,,,,,,,,,,,,,,,,,,,,,,,,,,,,,,
107769,2023-11-06_12h57.42.982,two_step_task_legacy,2022.2.4,Win32,59.97720866,23,learning,0,resources/alien4_norm.png,0.6,resources/alien3_norm.png,0.4,TRUE,TRUE,2,0.196126084,purple,x,0.0669,alien4,TRUE,3,0.704176915,122,0,0.6,x,0.0505,0,227,227,227,1,0.3,0.7,0.4,0.6,TRUE,,,,,,,,,,,,,,,,,,,,,,,,,,,,,,,,,
107769,2023-11-06_12h57.42.982,two_step_task_legacy,2022.2.4,Win32,59.97720866,23,learning,1,resources/alien1_norm.png,0.3,resources/alien2_norm.png,0.7,TRUE,TRUE,3,0.959281618,red,x,0.1166,alien1,TRUE,2,0.168145706,123,1,0.3,x,0.1332,0,228,228,228,1,0.3,0.7,0.4,0.6,FALSE,,,,,,,,,,,,,,,,,,,,,,,,,,,,,,,,,
107769,2023-11-06_12h57.42.982,two_step_task_legacy,2022.2.4,Win32,59.97720866,23,learning,0,resources/alien4_norm.png,0.6,resources/alien3_norm.png,0.4,TRUE,TRUE,2,0.166687602,purple,x,0.0671,alien4,TRUE,3,0.864076598,123,0,0.6,x,0.1834,0,229,229,229,1,0.3,0.7,0.4,0.6,TRUE,,,,,,,,,,,,,,,,,,,,,,,,,,,,,,,,,
107769,2023-11-06_12h57.42.982,two_step_task_legacy,2022.2.4,Win32,59.97720866,23,learning,1,resources/alien2_norm.png,0.7,resources/alien1_norm.png,0.3,TRUE,TRUE,3,0.996746902,red,x,0.0336,alien2,TRUE,2,0.379071386,124,1,0.7,x,0.1498,0,230,230,230,1,0.3,0.7,0.4,0.6,TRUE,,,,,,,,,,,,,,,,,,,,,,,,,,,,,,,,,
107769,2023-11-06_12h57.42.982,two_step_task_legacy,2022.2.4,Win32,59.97720866,23,learning,0,resources/alien4_norm.png,0.6,resources/alien3_norm.png,0.4,TRUE,TRUE,2,0.311933496,purple,x,0.101,alien4,TRUE,2,0.180195332,125,1,0.6,x,0.0508,0,231,231,231,1,0.3,0.7,0.4,0.6,TRUE,,,,,,,,,,,,,,,,,,,,,,,,,,,,,,,,,
107769,2023-11-06_12h57.42.982,two_step_task_legacy,2022.2.4,Win32,59.97720866,23,learning,1,resources/alien1_norm.png,0.3,resources/alien2_norm.png,0.7,TRUE,TRUE,3,0.952156373,red,x,0.0667,alien1,TRUE,3,0.35214192,125,0,0.3,x,0.1002,0,232,232,232,1,0.3,0.7,0.4,0.6,FALSE,,,,,,,,,,,,,,,,,,,,,,,,,,,,,,,,,
107769,2023-11-06_12h57.42.982,two_step_task_legacy,2022.2.4,Win32,59.97720866,23,learning,1,resources/alien2_norm.png,0.7,resources/alien1_norm.png,0.3,TRUE,TRUE,3,0.912393362,red,x,0.1839,alien2,TRUE,3,0.795995411,125,0,0.7,x,0.25,0,233,233,233,1,0.3,0.7,0.4,0.6,TRUE,,,,,,,,,,,,,,,,,,,,,,,,,,,,,,,,,
107769,2023-11-06_12h57.42.982,two_step_task_legacy,2022.2.4,Win32,59.97720866,23,learning,0,resources/alien3_norm.png,0.4,resources/alien4_norm.png,0.6,TRUE,TRUE,2,0.263066575,purple,x,0.1002,alien3,TRUE,3,0.786594302,125,0,0.4,x,0.0835,0,234,234,234,1,0.3,0.7,0.4,0.6,FALSE,,,,,,,,,,,,,,,,,,,,,,,,,,,,,,,,,
107769,2023-11-06_12h57.42.982,two_step_task_legacy,2022.2.4,Win32,59.97720866,23,learning,0,resources/alien3_norm.png,0.4,resources/alien4_norm.png,0.6,TRUE,TRUE,2,0.388344039,purple,x,0.3174,alien3,TRUE,3,0.899440086,125,0,0.4,x,0.0506,0,235,235,235,1,0.3,0.7,0.4,0.6,FALSE,,,,,,,,,,,,,,,,,,,,,,,,,,,,,,,,,
107769,2023-11-06_12h57.42.982,two_step_task_legacy,2022.2.4,Win32,59.97720866,23,learning,1,resources/alien1_norm.png,0.3,resources/alien2_norm.png,0.7,TRUE,TRUE,3,0.781372702,red,x,0.0338,alien1,TRUE,3,0.348271306,125,0,0.3,x,0.0996,0,236,236,236,1,0.3,0.7,0.4,0.6,FALSE,,,,,,,,,,,,,,,,,,,,,,,,,,,,,,,,,
107769,2023-11-06_12h57.42.982,two_step_task_legacy,2022.2.4,Win32,59.97720866,23,learning,0,resources/alien3_norm.png,0.4,resources/alien4_norm.png,0.6,TRUE,TRUE,2,0.113046712,purple,x,1.5843,alien3,TRUE,2,0.084229745,126,1,0.4,x,0.3664,0,237,237,237,1,0.3,0.7,0.4,0.6,FALSE,,,,,,,,,,,,,,,,,,,,,,,,,,,,,,,,,
107769,2023-11-06_12h57.42.982,two_step_task_legacy,2022.2.4,Win32,59.97720866,23,learning,0,resources/alien3_norm.png,0.4,resources/alien4_norm.png,0.6,TRUE,TRUE,2,0.179718274,purple,x,0.1337,alien3,TRUE,2,0.048807766,127,1,0.4,x,0.0004,0,238,238,238,1,0.3,0.7,0.4,0.6,FALSE,,,,,,,,,,,,,,,,,,,,,,,,,,,,,,,,,
107769,2023-11-06_12h57.42.982,two_step_task_legacy,2022.2.4,Win32,59.97720866,23,learning,0,resources/alien3_norm.png,0.4,resources/alien4_norm.png,0.6,TRUE,TRUE,2,0.503150896,purple,x,0.3164,alien3,TRUE,2,0.016657774,128,1,0.4,x,0.1012,0,239,239,239,1,0.3,0.7,0.4,0.6,FALSE,,,,,,,,,,,,,,,,,,,,,,,,,,,,,,,,,
107769,2023-11-06_12h57.42.982,two_step_task_legacy,2022.2.4,Win32,59.97720866,23,learning,0,resources/alien3_norm.png,0.4,resources/alien4_norm.png,0.6,TRUE,TRUE,2,0.103288605,purple,x,0.1504,alien3,TRUE,3,0.723955232,128,0,0.4,x,0.0507,0,240,240,240,1,0.3,0.7,0.4,0.6,FALSE,,,,,,,,,,,,,,,,,,,,,,,,,,,,,,,,,
107769,2023-11-06_12h57.42.982,two_step_task_legacy,2022.2.4,Win32,59.97720866,23,learning,0,resources/alien3_norm.png,0.4,resources/alien4_norm.png,0.6,TRUE,TRUE,2,0.074885093,purple,x,0.1672,alien3,TRUE,2,0.317675946,129,1,0.4,x,0.1671,0,241,241,241,1,0.3,0.7,0.4,0.6,FALSE,,,,,,,,,,,,,,,,,,,,,,,,,,,,,,,,,
107769,2023-11-06_12h57.42.982,two_step_task_legacy,2022.2.4,Win32,59.97720866,23,learning,0,resources/alien3_norm.png,0.4,resources/alien4_norm.png,0.6,TRUE,TRUE,2,0.179227404,purple,x,0.2673,alien3,TRUE,3,0.885963156,129,0,0.4,x,0.184,0,242,242,242,1,0.3,0.7,0.4,0.6,FALSE,,,,,,,,,,,,,,,,,,,,,,,,,,,,,,,,,
107769,2023-11-06_12h57.42.982,two_step_task_legacy,2022.2.4,Win32,59.97720866,23,learning,0,resources/alien3_norm.png,0.4,resources/alien4_norm.png,0.6,TRUE,TRUE,2,0.353875588,purple,x,0.2678,alien3,TRUE,3,0.94777981,129,0,0.4,x,0.084,0,243,243,243,1,0.3,0.7,0.4,0.6,FALSE,,,,,,,,,,,,,,,,,,,,,,,,,,,,,,,,,
107769,2023-11-06_12h57.42.982,two_step_task_legacy,2022.2.4,Win32,59.97720866,23,learning,0,resources/alien3_norm.png,0.4,resources/alien4_norm.png,0.6,TRUE,TRUE,2,0.500342388,purple,x,0.3838,alien3,TRUE,3,0.848470291,129,0,0.4,x,0.6173,0,244,244,244,1,0.3,0.7,0.4,0.6,FALSE,,,,,,,,,,,,,,,,,,,,,,,,,,,,,,,,,
107769,2023-11-06_12h57.42.982,two_step_task_legacy,2022.2.4,Win32,59.97720866,23,learning,0,resources/alien4_norm.png,0.6,resources/alien3_norm.png,0.4,TRUE,TRUE,2,0.614267679,purple,x,0.1838,alien4,TRUE,2,0.323958884,130,1,0.6,x,0.217,0,245,245,245,1,0.3,0.7,0.4,0.6,TRUE,,,,,,,,,,,,,,,,,,,,,,,,,,,,,,,,,
107769,2023-11-06_12h57.42.982,two_step_task_legacy,2022.2.4,Win32,59.97720866,23,learning,1,,,,,FALSE,FALSE,3,0.840423238,purple,,,,,,,,,,,,0,246,246,246,1,0.3,0.7,0.4,0.6,FALSE,,,,,,,,,,,,,,,,,,,,,,,,,,,,,,,,,
107769,2023-11-06_12h57.42.982,two_step_task_legacy,2022.2.4,Win32,59.97720866,23,learning,0,,,,,FALSE,FALSE,2,0.585470803,purple,,,,,,,,,,,,0,247,247,247,1,0.3,0.7,0.4,0.6,TRUE,,,,,,,,,,,,,,,,,,,,,,,,,,,,,,,,,
107769,2023-11-06_12h57.42.982,two_step_task_legacy,2022.2.4,Win32,59.97720866,23,learning,1,,,,,FALSE,FALSE,3,0.852457237,purple,,,,,,,,,,,,0,248,248,248,1,0.3,0.7,0.4,0.6,TRUE,,,,,,,,,,,,,,,,,,,,,,,,,,,,,,,,,
107769,2023-11-06_12h57.42.982,two_step_task_legacy,2022.2.4,Win32,59.97720866,23,learning,0,,,,,FALSE,FALSE,2,0.024821316,purple,,,,,,,,,,,,0,249,249,249,1,0.3,0.7,0.4,0.6,FALSE,,,,,,,,,,,,,,,,,,,,,,,,,,,,,,,,,
107769,2023-11-06_12h57.42.982,two_step_task_legacy,2022.2.4,Win32,59.97720866,23,learning,0,,,,,FALSE,FALSE,2,0.410194601,purple,,,,,,,,,,,,0,250,250,250,1,0.3,0.7,0.4,0.6,TRUE,,,,,,,,,,,,,,,,,,,,,,,,,,,,,,,,,
107769,2023-11-06_12h57.42.982,two_step_task_legacy,2022.2.4,Win32,59.97720866,23,learning,1,,,,,FALSE,FALSE,3,0.869848692,purple,,,,,,,,,,,,0,251,251,251,1,0.3,0.7,0.4,0.6,FALSE,,,,,,,,,,,,,,,,,,,,,,,,,,,,,,,,,
107769,2023-11-06_12h57.42.982,two_step_task_legacy,2022.2.4,Win32,59.97720866,23,learning,1,,,,,FALSE,FALSE,3,0.768235499,purple,,,,,,,,,,,,0,252,252,252,1,0.3,0.7,0.4,0.6,FALSE,,,,,,,,,,,,,,,,,,,,,,,,,,,,,,,,,
107769,2023-11-06_12h57.42.982,two_step_task_legacy,2022.2.4,Win32,59.97720866,23,learning,1,,,,,FALSE,FALSE,3,0.815475081,purple,,,,,,,,,,,,0,253,253,253,1,0.3,0.7,0.4,0.6,TRUE,,,,,,,,,,,,,,,,,,,,,,,,,,,,,,,,,
107769,2023-11-06_12h57.42.982,two_step_task_legacy,2022.2.4,Win32,59.97720866,23,learning,0,,,,,FALSE,FALSE,2,0.290752932,purple,,,,,,,,,,,,0,254,254,254,1,0.3,0.7,0.4,0.6,TRUE,,,,,,,,,,,,,,,,,,,,,,,,,,,,,,,,,
107769,2023-11-06_12h57.42.982,two_step_task_legacy,2022.2.4,Win32,59.97720866,23,learning,1,,,,,FALSE,FALSE,3,0.957982473,purple,,,,,,,,,,,,0,255,255,255,1,0.3,0.7,0.4,0.6,FALSE,,,,,,,,,,,,,,,,,,,,,,,,,,,,,,,,,
107769,2023-11-06_12h57.42.982,two_step_task_legacy,2022.2.4,Win32,59.97720866,23,learning,0,resources/alien2_norm.png,0.7,resources/alien1_norm.png,0.3,TRUE,TRUE,3,0.342444648,red,m,0.8674,alien1,TRUE,3,0.866259992,130,0,0.3,m,1.1997,0,256,256,256,1,0.3,0.7,0.4,0.6,TRUE,,,,,,,,,,,,,,,,,,,,,,,,,,,,,,,,,
107769,2023-11-06_12h57.42.982,two_step_task_legacy,2022.2.4,Win32,59.97720866,23,learning,0,resources/alien2_norm.png,0.7,resources/alien1_norm.png,0.3,TRUE,TRUE,3,0.135232766,red,m,0.0674,alien1,TRUE,3,0.89921726,130,0,0.3,m,0.1341,0,257,257,257,1,0.3,0.7,0.4,0.6,TRUE,,,,,,,,,,,,,,,,,,,,,,,,,,,,,,,,,
107769,2023-11-06_12h57.42.982,two_step_task_legacy,2022.2.4,Win32,59.97720866,23,learning,1,resources/alien4_norm.png,0.6,resources/alien3_norm.png,0.4,TRUE,TRUE,2,0.794682868,purple,m,0.0342,alien3,TRUE,2,0.270843674,131,1,0.4,m,0.083,0,258,258,258,1,0.3,0.7,0.4,0.6,TRUE,,,,,,,,,,,,,,,,,,,,,,,,,,,,,,,,,
107769,2023-11-06_12h57.42.982,two_step_task_legacy,2022.2.4,Win32,59.97720866,23,learning,0,resources/alien2_norm.png,0.7,resources/alien1_norm.png,0.3,TRUE,TRUE,3,0.260025716,red,m,0.1003,alien1,TRUE,3,0.6977466,131,0,0.3,m,0.7834,0,259,259,259,1,0.3,0.7,0.4,0.6,TRUE,,,,,,,,,,,,,,,,,,,,,,,,,,,,,,,,,
107769,2023-11-06_12h57.42.982,two_step_task_legacy,2022.2.4,Win32,59.97720866,23,learning,0,resources/alien2_norm.png,0.7,resources/alien1_norm.png,0.3,TRUE,TRUE,3,0.03484964,red,m,0.2168,alien1,TRUE,2,0.013850537,132,1,0.3,m,0.3926,0,260,260,260,1,0.3,0.7,0.4,0.6,TRUE,,,,,,,,,,,,,,,,,,,,,,,,,,,,,,,,,
107769,2023-11-06_12h57.42.982,two_step_task_legacy,2022.2.4,Win32,59.97720866,23,learning,0,resources/alien1_norm.png,0.3,resources/alien2_norm.png,0.7,TRUE,TRUE,3,0.398890904,red,m,0.7172,alien2,TRUE,2,0.354609638,133,1,0.7,m,0.0502,0,261,261,261,1,0.3,0.7,0.4,0.6,FALSE,,,,,,,,,,,,,,,,,,,,,,,,,,,,,,,,,
107769,2023-11-06_12h57.42.982,two_step_task_legacy,2022.2.4,Win32,59.97720866,23,learning,1,resources/alien4_norm.png,0.6,resources/alien3_norm.png,0.4,TRUE,TRUE,2,0.99544105,purple,m,0.2338,alien3,TRUE,3,0.47505842,133,0,0.4,m,0.0505,0,262,262,262,1,0.3,0.7,0.4,0.6,TRUE,,,,,,,,,,,,,,,,,,,,,,,,,,,,,,,,,
107769,2023-11-06_12h57.42.982,two_step_task_legacy,2022.2.4,Win32,59.97720866,23,learning,0,resources/alien1_norm.png,0.3,resources/alien2_norm.png,0.7,TRUE,TRUE,3,0.647354858,red,m,0.4338,alien2,TRUE,2,0.677886159,134,1,0.7,m,0.2171,0,263,263,263,1,0.3,0.7,0.4,0.6,FALSE,,,,,,,,,,,,,,,,,,,,,,,,,,,,,,,,,
107769,2023-11-06_12h57.42.982,two_step_task_legacy,2022.2.4,Win32,59.97720866,23,learning,0,resources/alien2_norm.png,0.7,resources/alien1_norm.png,0.3,TRUE,TRUE,3,0.663334778,red,m,0.1501,alien1,TRUE,2,0.198868658,135,1,0.3,m,0.1504,0,264,264,264,1,0.3,0.7,0.4,0.6,TRUE,,,,,,,,,,,,,,,,,,,,,,,,,,,,,,,,,
107769,2023-11-06_12h57.42.982,two_step_task_legacy,2022.2.4,Win32,59.97720866,23,learning,0,resources/alien1_norm.png,0.3,resources/alien2_norm.png,0.7,TRUE,TRUE,3,0.014403533,red,m,0.0838,alien2,TRUE,2,0.084757464,136,1,0.7,m,0.1503,0,265,265,265,1,0.3,0.7,0.4,0.6,FALSE,,,,,,,,,,,,,,,,,,,,,,,,,,,,,,,,,
107769,2023-11-06_12h57.42.982,two_step_task_legacy,2022.2.4,Win32,59.97720866,23,learning,0,resources/alien1_norm.png,0.3,resources/alien2_norm.png,0.7,TRUE,TRUE,3,0.234224937,red,m,0.5673,alien2,TRUE,2,0.042101519,137,1,0.7,m,0.7339,0,266,266,266,1,0.3,0.7,0.4,0.6,FALSE,,,,,,,,,,,,,,,,,,,,,,,,,,,,,,,,,
107769,2023-11-06_12h57.42.982,two_step_task_legacy,2022.2.4,Win32,59.97720866,23,learning,0,resources/alien2_norm.png,0.7,resources/alien1_norm.png,0.3,TRUE,TRUE,3,0.390554109,red,m,0.1339,alien1,TRUE,2,0.073651014,138,1,0.3,m,0.3326,0,267,267,267,1,0.3,0.7,0.4,0.6,TRUE,,,,,,,,,,,,,,,,,,,,,,,,,,,,,,,,,
107769,2023-11-06_12h57.42.982,two_step_task_legacy,2022.2.4,Win32,59.97720866,23,learning,0,resources/alien2_norm.png,0.7,resources/alien1_norm.png,0.3,TRUE,TRUE,3,0.134102622,red,m,0.0837,alien1,TRUE,3,0.346326996,138,0,0.3,m,0.1839,0,268,268,268,1,0.3,0.7,0.4,0.6,TRUE,,,,,,,,,,,,,,,,,,,,,,,,,,,,,,,,,
107769,2023-11-06_12h57.42.982,two_step_task_legacy,2022.2.4,Win32,59.97720866,23,learning,0,resources/alien2_norm.png,0.7,resources/alien1_norm.png,0.3,TRUE,TRUE,3,0.356362359,red,m,0.2002,alien1,TRUE,3,0.932408205,138,0,0.3,m,0.0096,0,269,269,269,1,0.3,0.7,0.4,0.6,TRUE,,,,,,,,,,,,,,,,,,,,,,,,,,,,,,,,,
107769,2023-11-06_12h57.42.982,two_step_task_legacy,2022.2.4,Win32,59.97720866,23,learning,1,,,,,FALSE,FALSE,3,0.979643501,red,,,,,,,,,,,,0,270,270,270,1,0.3,0.7,0.4,0.6,TRUE,,,,,,,,,,,,,,,,,,,,,,,,,,,,,,,,,
107769,2023-11-06_12h57.42.982,two_step_task_legacy,2022.2.4,Win32,59.97720866,23,learning,0,,,,,FALSE,FALSE,2,0.36676899,red,,,,,,,,,,,,0,271,271,271,1,0.3,0.7,0.4,0.6,TRUE,,,,,,,,,,,,,,,,,,,,,,,,,,,,,,,,,
107769,2023-11-06_12h57.42.982,two_step_task_legacy,2022.2.4,Win32,59.97720866,23,learning,1,,,,,FALSE,FALSE,3,0.828644329,red,,,,,,,,,,,,0,272,272,272,1,0.3,0.7,0.4,0.6,TRUE,,,,,,,,,,,,,,,,,,,,,,,,,,,,,,,,,
107769,2023-11-06_12h57.42.982,two_step_task_legacy,2022.2.4,Win32,59.97720866,23,learning,0,,,,,FALSE,FALSE,2,0.381144274,red,,,,,,,,,,,,0,273,273,273,1,0.3,0.7,0.4,0.6,TRUE,,,,,,,,,,,,,,,,,,,,,,,,,,,,,,,,,
107769,2023-11-06_12h57.42.982,two_step_task_legacy,2022.2.4,Win32,59.97720866,23,learning,0,,,,,FALSE,FALSE,2,0.167511418,red,,,,,,,,,,,,0,274,274,274,1,0.3,0.7,0.4,0.6,FALSE,,,,,,,,,,,,,,,,,,,,,,,,,,,,,,,,,
107769,2023-11-06_12h57.42.982,two_step_task_legacy,2022.2.4,Win32,59.97720866,23,learning,1,,,,,FALSE,FALSE,3,0.832875564,red,,,,,,,,,,,,0,275,275,275,1,0.3,0.7,0.4,0.6,TRUE,,,,,,,,,,,,,,,,,,,,,,,,,,,,,,,,,
107769,2023-11-06_12h57.42.982,two_step_task_legacy,2022.2.4,Win32,59.97720866,23,learning,0,,,,,FALSE,FALSE,2,0.659917038,red,,,,,,,,,,,,0,276,276,276,1,0.3,0.7,0.4,0.6,FALSE,,,,,,,,,,,,,,,,,,,,,,,,,,,,,,,,,
107769,2023-11-06_12h57.42.982,two_step_task_legacy,2022.2.4,Win32,59.97720866,23,learning,0,,,,,FALSE,FALSE,2,0.124206946,red,,,,,,,,,,,,0,277,277,277,1,0.3,0.7,0.4,0.6,TRUE,,,,,,,,,,,,,,,,,,,,,,,,,,,,,,,,,
107769,2023-11-06_12h57.42.982,two_step_task_legacy,2022.2.4,Win32,59.97720866,23,learning,0,,,,,FALSE,FALSE,2,0.13187332,red,,,,,,,,,,,,0,278,278,278,1,0.3,0.7,0.4,0.6,FALSE,,,,,,,,,,,,,,,,,,,,,,,,,,,,,,,,,
107769,2023-11-06_12h57.42.982,two_step_task_legacy,2022.2.4,Win32,59.97720866,23,learning,0,resources/alien1_norm.png,0.3,resources/alien2_norm.png,0.7,TRUE,TRUE,3,0.042856122,red,m,0.8503,alien2,TRUE,3,0.947965008,138,0,0.7,m,0.0336,0,279,279,279,1,0.3,0.7,0.4,0.6,FALSE,,,,,,,,,,,,,,,,,,,,,,,,,,,,,,,,,
107769,2023-11-06_12h57.42.982,two_step_task_legacy,2022.2.4,Win32,59.97720866,23,learning,0,resources/alien4_norm.png,0.6,resources/alien3_norm.png,0.4,TRUE,TRUE,2,0.158777692,purple,x,1.2836,alien4,TRUE,2,0.193951716,139,1,0.6,x,0.1674,0,280,280,280,1,0.3,0.7,0.4,0.6,TRUE,,,,,,,,,,,,,,,,,,,,,,,,,,,,,,,,,
107769,2023-11-06_12h57.42.982,two_step_task_legacy,2022.2.4,Win32,59.97720866,23,learning,0,resources/alien4_norm.png,0.6,resources/alien3_norm.png,0.4,TRUE,TRUE,2,0.279769942,purple,x,0.1672,alien4,TRUE,3,0.899668165,139,0,0.6,x,0.5841,0,281,281,281,1,0.3,0.7,0.4,0.6,TRUE,,,,,,,,,,,,,,,,,,,,,,,,,,,,,,,,,
107769,2023-11-06_12h57.42.982,two_step_task_legacy,2022.2.4,Win32,59.97720866,23,learning,0,resources/alien3_norm.png,0.4,resources/alien4_norm.png,0.6,TRUE,TRUE,2,0.50888087,purple,x,0.1834,alien3,TRUE,2,0.14443186,140,1,0.4,x,0.2669,0,282,282,282,1,0.3,0.7,0.4,0.6,FALSE,,,,,,,,,,,,,,,,,,,,,,,,,,,,,,,,,
107769,2023-11-06_12h57.42.982,two_step_task_legacy,2022.2.4,Win32,59.97720866,23,learning,1,resources/alien2_norm.png,0.7,resources/alien1_norm.png,0.3,TRUE,TRUE,3,0.807811666,red,x,0.317,alien2,TRUE,3,0.967712774,140,0,0.7,x,0.2336,0,283,283,283,1,0.3,0.7,0.4,0.6,TRUE,,,,,,,,,,,,,,,,,,,,,,,,,,,,,,,,,
107769,2023-11-06_12h57.42.982,two_step_task_legacy,2022.2.4,Win32,59.97720866,23,learning,0,,,,,FALSE,FALSE,2,0.645189,red,,,,,,,,,,,,0,284,284,284,1,0.3,0.7,0.4,0.6,TRUE,,,,,,,,,,,,,,,,,,,,,,,,,,,,,,,,,
107769,2023-11-06_12h57.42.982,two_step_task_legacy,2022.2.4,Win32,59.97720866,23,learning,1,resources/alien1_norm.png,0.3,resources/alien2_norm.png,0.7,TRUE,TRUE,3,0.960537035,red,x,1.1505,alien1,TRUE,3,0.894043649,140,0,0.3,x,0.0674,0,285,285,285,1,0.3,0.7,0.4,0.6,FALSE,,,,,,,,,,,,,,,,,,,,,,,,,,,,,,,,,
107769,2023-11-06_12h57.42.982,two_step_task_legacy,2022.2.4,Win32,59.97720866,23,learning,0,resources/alien4_norm.png,0.6,resources/alien3_norm.png,0.4,TRUE,TRUE,2,0.440752552,purple,x,0.2832,alien4,TRUE,3,0.923358258,140,0,0.6,x,0.5395,0,286,286,286,1,0.3,0.7,0.4,0.6,TRUE,,,,,,,,,,,,,,,,,,,,,,,,,,,,,,,,,
107769,2023-11-06_12h57.42.982,two_step_task_legacy,2022.2.4,Win32,59.97720866,23,learning,0,resources/alien4_norm.png,0.6,resources/alien3_norm.png,0.4,TRUE,TRUE,2,0.235005811,purple,x,1.4005,alien4,TRUE,2,0.116632438,141,1,0.6,x,0.0003,0,287,287,287,1,0.3,0.7,0.4,0.6,TRUE,,,,,,,,,,,,,,,,,,,,,,,,,,,,,,,,,
107769,2023-11-06_12h57.42.982,two_step_task_legacy,2022.2.4,Win32,59.97720866,23,learning,1,resources/alien1_norm.png,0.3,resources/alien2_norm.png,0.7,TRUE,TRUE,3,0.765223728,red,x,0.4172,alien1,TRUE,3,0.691296987,141,0,0.3,x,0.9666,0,288,288,288,1,0.3,0.7,0.4,0.6,FALSE,,,,,,,,,,,,,,,,,,,,,,,,,,,,,,,,,
107769,2023-11-06_12h57.42.982,two_step_task_legacy,2022.2.4,Win32,59.97720866,23,learning,0,resources/alien4_norm.png,0.6,resources/alien3_norm.png,0.4,TRUE,TRUE,2,0.013982229,purple,x,2.1172,alien4,TRUE,3,0.629237064,141,0,0.6,x,0.5501,0,289,289,289,1,0.3,0.7,0.4,0.6,TRUE,,,,,,,,,,,,,,,,,,,,,,,,,,,,,,,,,
107769,2023-11-06_12h57.42.982,two_step_task_legacy,2022.2.4,Win32,59.97720866,23,learning,1,resources/alien2_norm.png,0.7,resources/alien1_norm.png,0.3,TRUE,TRUE,3,0.758728668,red,x,0.051,alien2,TRUE,2,0.215550462,142,1,0.7,x,0.5007,0,290,290,290,1,0.3,0.7,0.4,0.6,TRUE,,,,,,,,,,,,,,,,,,,,,,,,,,,,,,,,,
107769,2023-11-06_12h57.42.982,two_step_task_legacy,2022.2.4,Win32,59.97720866,23,learning,0,resources/alien4_norm.png,0.6,resources/alien3_norm.png,0.4,TRUE,TRUE,2,0.493232196,purple,x,1.5337,alien4,TRUE,2,0.23851555,143,1,0.6,x,0.0503,0,291,291,291,1,0.3,0.7,0.4,0.6,TRUE,,,,,,,,,,,,,,,,,,,,,,,,,,,,,,,,,
107769,2023-11-06_12h57.42.982,two_step_task_legacy,2022.2.4,Win32,59.97720866,23,learning,0,resources/alien3_norm.png,0.4,resources/alien4_norm.png,0.6,TRUE,TRUE,2,0.312854537,purple,x,0.2337,alien3,TRUE,3,0.534359681,143,0,0.4,x,0.0837,0,292,292,292,1,0.3,0.7,0.4,0.6,FALSE,,,,,,,,,,,,,,,,,,,,,,,,,,,,,,,,,
107769,2023-11-06_12h57.42.982,two_step_task_legacy,2022.2.4,Win32,59.97720866,23,learning,0,resources/alien3_norm.png,0.4,resources/alien4_norm.png,0.6,TRUE,TRUE,2,0.434228983,purple,x,0.1675,alien3,TRUE,2,0.18191335,144,1,0.4,x,0.3506,0,293,293,293,1,0.3,0.7,0.4,0.6,FALSE,,,,,,,,,,,,,,,,,,,,,,,,,,,,,,,,,
107769,2023-11-06_12h57.42.982,two_step_task_legacy,2022.2.4,Win32,59.97720866,23,learning,1,resources/alien2_norm.png,0.7,resources/alien1_norm.png,0.3,TRUE,TRUE,3,0.954911436,red,x,0.1863,alien2,TRUE,2,0.249700891,145,1,0.7,x,0.1337,0,294,294,294,1,0.3,0.7,0.4,0.6,TRUE,,,,,,,,,,,,,,,,,,,,,,,,,,,,,,,,,
107769,2023-11-06_12h57.42.982,two_step_task_legacy,2022.2.4,Win32,59.97720866,23,learning,1,resources/alien1_norm.png,0.3,resources/alien2_norm.png,0.7,TRUE,TRUE,3,0.905960938,red,x,0.3501,alien1,TRUE,2,0.232236253,146,1,0.3,x,0.2002,0,295,295,295,1,0.3,0.7,0.4,0.6,FALSE,,,,,,,,,,,,,,,,,,,,,,,,,,,,,,,,,
107769,2023-11-06_12h57.42.982,two_step_task_legacy,2022.2.4,Win32,59.97720866,23,learning,0,resources/alien4_norm.png,0.6,resources/alien3_norm.png,0.4,TRUE,TRUE,2,0.210925569,purple,x,0.7675,alien4,TRUE,2,0.036548857,147,1,0.6,x,0.266,0,296,296,296,1,0.3,0.7,0.4,0.6,TRUE,,,,,,,,,,,,,,,,,,,,,,,,,,,,,,,,,
107769,2023-11-06_12h57.42.982,two_step_task_legacy,2022.2.4,Win32,59.97720866,23,learning,1,resources/alien2_norm.png,0.7,resources/alien1_norm.png,0.3,TRUE,TRUE,3,0.709785764,red,x,0.0507,alien2,TRUE,2,0.297074788,148,1,0.7,x,0.8,0,297,297,297,1,0.3,0.7,0.4,0.6,TRUE,,,,,,,,,,,,,,,,,,,,,,,,,,,,,,,,,
107769,2023-11-06_12h57.42.982,two_step_task_legacy,2022.2.4,Win32,59.97720866,23,learning,0,resources/alien4_norm.png,0.6,resources/alien3_norm.png,0.4,TRUE,TRUE,2,0.028761148,purple,x,0.0005,alien4,TRUE,3,0.732694976,148,0,0.6,x,0.2333,0,298,298,298,1,0.3,0.7,0.4,0.6,TRUE,,,,,,,,,,,,,,,,,,,,,,,,,,,,,,,,,
