participant,date,expName,psychopyVersion,OS,frameRate,payoff_list,phase,rare_transition,left_alien,left_probabilty,right_alien,right_probabilty,select_sp,show_alien,rocket_trans,rand_sp,planet,key_resp_exp.keys,key_resp_exp.rt,chosen_alien,select_alien,transmoney,rand_money,totalgold,trialgain,probs,key_resp_exp_alien.keys,key_resp_exp_alien.rt,loop_exp.thisRepN,loop_exp.thisTrialN,loop_exp.thisN,loop_exp.thisIndex,loop_exp.ran,p1,p2,p3,p4,flip_sides,key_resp.keys,key_resp.rt,slider.response,slider.rt,post_loop.thisRepN,post_loop.thisTrialN,post_loop.thisN,post_loop.thisIndex,post_loop.ran,text_up,pos_text_up,text_down,pos_img_left_up,left_up_img,right_up_img,left_down_img_1,left_down_img_2,right_down_img_1,right_down_img_2,size,show_slider,static_probability_left,static_probability_right,key_resp_probe.keys,key_resp_probe.rt,accuracy,probe_loop.thisRepN,probe_loop.thisTrialN,probe_loop.thisN,probe_loop.thisIndex,probe_loop.ran,probe_la,probe_ra
330418,2023-11-03_17h16.17.951,two_step_task_legacy,2022.2.4,Win32,60.89763108,,,,,,,,,,,,,,,,,,,,,,,,,,,,,,,,,,,,,,,,,,,,,,,,,,,,,,,,,,,,,,,,,,
330418,2023-11-03_17h16.17.951,two_step_task_legacy,2022.2.4,Win32,60.89763108,,,,,,,,,,,,,,,,,,,,,,,,,,,,,,,,,,,,,,,,,,,,,,,,,,,,,,,,,,,,,,,,,,
330418,2023-11-03_17h16.17.951,two_step_task_legacy,2022.2.4,Win32,60.89763108,,,,,,,,,,,,,,,,,,,,,,,,,,,,,,,,,,,,,,,,,,,,,,,,,,,,,,,,,,,,,,,,,,
330418,2023-11-03_17h16.17.951,two_step_task_legacy,2022.2.4,Win32,60.89763108,,,,,,,,,,,,,,,,,,,,,,,,,,,,,,,,,,,,,,,,,,,,,,,,,,,,,,,,,,,,,,,,,,
330418,2023-11-03_17h16.17.951,two_step_task_legacy,2022.2.4,Win32,60.89763108,,,,,,,,,,,,,,,,,,,,,,,,,,,,,,,,,,,,,,,,,,,,,,,,,,,,,,,,,,,,,,,,,,
330418,2023-11-03_17h16.17.951,two_step_task_legacy,2022.2.4,Win32,60.89763108,,,,,,,,,,,,,,,,,,,,,,,,,,,,,,,,,,,,,,,,,,,,,,,,,,,,,,,,,,,,,,,,,,
330418,2023-11-03_17h16.17.951,two_step_task_legacy,2022.2.4,Win32,60.89763108,,,,,,,,,,,,,,,,,,,,,,,,,,,,,,,,,,,,,,,,,,,,,,,,,,,,,,,,,,,,,,,,,,
330418,2023-11-03_17h16.17.951,two_step_task_legacy,2022.2.4,Win32,60.89763108,,,,,,,,,,,,,,,,,,,,,,,,,,,,,,,,,,,,,,,,,,,,,,,,,,,,,,,,,,,,,,,,,,
330418,2023-11-03_17h16.17.951,two_step_task_legacy,2022.2.4,Win32,60.89763108,,,,,,,,,,,,,,,,,,,,,,,,,,,,,,,,,,,,,,,,,,,,,,,,,,,,,,,,,,,,,,,,,,
330418,2023-11-03_17h16.17.951,two_step_task_legacy,2022.2.4,Win32,60.89763108,,,,,,,,,,,,,,,,,,,,,,,,,,,,,,,,,,,,,,,,,,,,,,,,,,,,,,,,,,,,,,,,,,
330418,2023-11-03_17h16.17.951,two_step_task_legacy,2022.2.4,Win32,60.89763108,,,,,,,,,,,,,,,,,,,,,,,,,,,,,,,,,,,,,,,,,,,,,,,,,,,,,,,,,,,,,,,,,,
330418,2023-11-03_17h16.17.951,two_step_task_legacy,2022.2.4,Win32,60.89763108,21,learning,0,resources/alien3_norm.png,0.684167385,resources/alien4_norm.png,0.574881385,TRUE,TRUE,2,0.04178147,purple,x,0.83,alien3,TRUE,2,0.394874904,1,1,0.684167385,x,0.0446,0,0,0,0,1,0.601195094,0.412920416,0.684167385,0.574881385,FALSE,,,,,,,,,,,,,,,,,,,,,,,,,,,,,,,,,
330418,2023-11-03_17h16.17.951,two_step_task_legacy,2022.2.4,Win32,60.89763108,21,learning,0,resources/alien2_norm.png,0.384635186,resources/alien1_norm.png,0.625745146,TRUE,TRUE,3,0.264202496,red,m,0.3453,alien1,TRUE,2,0.095320731,2,1,0.625745146,m,0.2928,0,1,1,1,1,0.625745146,0.384635186,0.686024818,0.598570502,TRUE,,,,,,,,,,,,,,,,,,,,,,,,,,,,,,,,,
330418,2023-11-03_17h16.17.951,two_step_task_legacy,2022.2.4,Win32,60.89763108,21,learning,0,resources/alien2_norm.png,0.369840214,resources/alien1_norm.png,0.607315968,TRUE,TRUE,3,0.664742582,red,m,0.2167,alien2,TRUE,3,0.72077394,2,0,0.369840214,x,0.2399,0,2,2,2,1,0.607315968,0.369840214,0.644881976,0.638671366,TRUE,,,,,,,,,,,,,,,,,,,,,,,,,,,,,,,,,
330418,2023-11-03_17h16.17.951,two_step_task_legacy,2022.2.4,Win32,60.89763108,21,learning,1,resources/alien2_norm.png,0.370949282,resources/alien1_norm.png,0.553970902,TRUE,TRUE,3,0.78383432,red,x,0.336,alien2,TRUE,2,0.114951542,3,1,0.370949282,x,0.2993,0,3,3,3,1,0.553970902,0.370949282,0.634096222,0.581962699,TRUE,,,,,,,,,,,,,,,,,,,,,,,,,,,,,,,,,
330418,2023-11-03_17h16.17.951,two_step_task_legacy,2022.2.4,Win32,60.89763108,21,learning,0,resources/alien2_norm.png,0.403833123,resources/alien1_norm.png,0.531032286,TRUE,TRUE,3,0.192445504,red,m,0.3814,alien1,TRUE,3,0.961709482,3,0,0.531032286,m,1.7567,0,4,4,4,1,0.531032286,0.403833123,0.641581245,0.574748429,TRUE,,,,,,,,,,,,,,,,,,,,,,,,,,,,,,,,,
330418,2023-11-03_17h16.17.951,two_step_task_legacy,2022.2.4,Win32,60.89763108,21,learning,0,resources/alien4_norm.png,0.5733101,resources/alien3_norm.png,0.653289635,TRUE,TRUE,2,0.27545482,purple,x,0.298,alien4,TRUE,2,0.111174902,4,1,0.5733101,x,0.5567,0,5,5,5,1,0.567657882,0.413108418,0.653289635,0.5733101,TRUE,,,,,,,,,,,,,,,,,,,,,,,,,,,,,,,,,
330418,2023-11-03_17h16.17.951,two_step_task_legacy,2022.2.4,Win32,60.89763108,21,learning,0,resources/alien1_norm.png,0.583224272,resources/alien2_norm.png,0.425080565,TRUE,TRUE,3,0.511563282,red,m,0.2181,alien2,TRUE,2,0.096641722,5,1,0.425080565,m,0.3941,0,6,6,6,1,0.583224272,0.425080565,0.710266348,0.526958851,FALSE,,,,,,,,,,,,,,,,,,,,,,,,,,,,,,,,,
330418,2023-11-03_17h16.17.951,two_step_task_legacy,2022.2.4,Win32,60.89763108,21,learning,0,resources/alien2_norm.png,0.442857993,resources/alien1_norm.png,0.611992163,TRUE,TRUE,3,0.649784235,red,m,0.2998,alien1,TRUE,3,0.871771381,5,0,0.611992163,m,1.3926,0,7,7,7,1,0.611992163,0.442857993,0.713974974,0.480861246,TRUE,,,,,,,,,,,,,,,,,,,,,,,,,,,,,,,,,
330418,2023-11-03_17h16.17.951,two_step_task_legacy,2022.2.4,Win32,60.89763108,21,learning,0,resources/alien4_norm.png,0.461218259,resources/alien3_norm.png,0.7109314,TRUE,TRUE,2,0.646230919,purple,x,0.136,alien4,TRUE,3,0.647037849,5,0,0.461218259,x,0.233,0,8,8,8,1,0.612740558,0.431833253,0.7109314,0.461218259,TRUE,,,,,,,,,,,,,,,,,,,,,,,,,,,,,,,,,
330418,2023-11-03_17h16.17.951,two_step_task_legacy,2022.2.4,Win32,60.89763108,21,learning,0,resources/alien4_norm.png,0.482120856,resources/alien3_norm.png,0.702346871,TRUE,TRUE,2,0.248149544,purple,x,0.1497,alien4,TRUE,2,0.324333046,6,1,0.482120856,x,0.0035,0,9,9,9,1,0.608500544,0.441677248,0.702346871,0.482120856,TRUE,,,,,,,,,,,,,,,,,,,,,,,,,,,,,,,,,
330418,2023-11-03_17h16.17.951,two_step_task_legacy,2022.2.4,Win32,60.89763108,21,learning,1,resources/alien4_norm.png,0.532346574,resources/alien3_norm.png,0.67633549,TRUE,TRUE,2,0.785078245,purple,m,0.6124,alien3,TRUE,2,0.217931232,7,1,0.67633549,m,1.2509,0,10,10,10,1,0.576141425,0.482625454,0.67633549,0.532346574,TRUE,,,,,,,,,,,,,,,,,,,,,,,,,,,,,,,,,
330418,2023-11-03_17h16.17.951,two_step_task_legacy,2022.2.4,Win32,60.89763108,21,learning,1,resources/alien2_norm.png,0.493435168,resources/alien1_norm.png,0.568074544,TRUE,TRUE,3,0.714652453,red,x,0.2665,alien2,TRUE,3,0.64732601,7,0,0.493435168,x,0.365,0,11,11,11,1,0.568074544,0.493435168,0.664063745,0.561189193,TRUE,,,,,,,,,,,,,,,,,,,,,,,,,,,,,,,,,
330418,2023-11-03_17h16.17.951,two_step_task_legacy,2022.2.4,Win32,60.89763108,21,learning,0,resources/alien3_norm.png,0.672411387,resources/alien4_norm.png,0.548431613,TRUE,TRUE,2,0.086712959,purple,x,0.2513,alien3,TRUE,3,0.939526828,7,0,0.672411387,x,0.4194,0,12,12,12,1,0.580926918,0.510599306,0.672411387,0.548431613,FALSE,,,,,,,,,,,,,,,,,,,,,,,,,,,,,,,,,
330418,2023-11-03_17h16.17.951,two_step_task_legacy,2022.2.4,Win32,60.89763108,21,learning,0,resources/alien1_norm.png,0.600410731,resources/alien2_norm.png,0.440226577,TRUE,TRUE,3,0.036737911,red,m,0.0661,alien2,TRUE,3,0.522288619,7,0,0.440226577,m,0.6932,0,13,13,13,1,0.600410731,0.440226577,0.663587653,0.549136269,FALSE,,,,,,,,,,,,,,,,,,,,,,,,,,,,,,,,,
330418,2023-11-03_17h16.17.951,two_step_task_legacy,2022.2.4,Win32,60.89763108,21,learning,0,resources/alien1_norm.png,0.611788063,resources/alien2_norm.png,0.418298082,TRUE,TRUE,3,0.244490706,red,m,0.529,alien1,TRUE,2,0.317689528,8,1,0.611788063,x,0.4208,0,14,14,14,1,0.611788063,0.418298082,0.666002255,0.524244528,FALSE,,,,,,,,,,,,,,,,,,,,,,,,,,,,,,,,,
330418,2023-11-03_17h16.17.951,two_step_task_legacy,2022.2.4,Win32,60.89763108,21,learning,0,resources/alien4_norm.png,0.531921129,resources/alien3_norm.png,0.677601938,TRUE,TRUE,2,0.082274017,purple,x,0.1175,alien3,TRUE,2,0.278276087,9,1,0.677601938,m,0.4437,0,15,15,15,1,0.598923528,0.389234347,0.677601938,0.531921129,TRUE,,,,,,,,,,,,,,,,,,,,,,,,,,,,,,,,,
330418,2023-11-03_17h16.17.951,two_step_task_legacy,2022.2.4,Win32,60.89763108,21,learning,0,resources/alien2_norm.png,0.442467063,resources/alien1_norm.png,0.573752737,TRUE,TRUE,3,0.183219491,red,m,0.3449,alien1,TRUE,3,0.822720853,9,0,0.573752737,m,0.3225,0,16,16,16,1,0.573752737,0.442467063,0.658528817,0.532800124,TRUE,,,,,,,,,,,,,,,,,,,,,,,,,,,,,,,,,
330418,2023-11-03_17h16.17.951,two_step_task_legacy,2022.2.4,Win32,60.89763108,21,learning,0,resources/alien4_norm.png,0.552412586,resources/alien3_norm.png,0.631175471,TRUE,TRUE,2,0.514330447,purple,x,0.2996,alien4,TRUE,2,0.098018918,10,1,0.552412586,x,0.2971,0,17,17,17,1,0.566603312,0.428427973,0.631175471,0.552412586,TRUE,,,,,,,,,,,,,,,,,,,,,,,,,,,,,,,,,
330418,2023-11-03_17h16.17.951,two_step_task_legacy,2022.2.4,Win32,60.89763108,21,learning,1,resources/alien1_norm.png,0.582114013,resources/alien2_norm.png,0.425646271,TRUE,TRUE,3,0.855575473,red,x,0.0172,alien1,TRUE,2,0.11295329,11,1,0.582114013,x,0.2996,0,18,18,18,1,0.582114013,0.425646271,0.604740096,0.565590497,FALSE,,,,,,,,,,,,,,,,,,,,,,,,,,,,,,,,,
330418,2023-11-03_17h16.17.951,two_step_task_legacy,2022.2.4,Win32,60.89763108,21,learning,1,resources/alien2_norm.png,0.373328893,resources/alien1_norm.png,0.561351389,TRUE,TRUE,3,0.87121166,red,x,0.2435,alien2,TRUE,3,0.846538676,11,0,0.373328893,x,0.4497,0,19,19,19,1,0.561351389,0.373328893,0.572334771,0.567031065,TRUE,,,,,,,,,,,,,,,,,,,,,,,,,,,,,,,,,
330418,2023-11-03_17h16.17.951,two_step_task_legacy,2022.2.4,Win32,60.89763108,21,learning,0,resources/alien2_norm.png,0.418292814,resources/alien1_norm.png,0.600913787,TRUE,TRUE,3,0.675428828,red,m,0.2331,alien2,TRUE,2,0.340845005,12,1,0.418292814,x,0.3144,0,20,20,20,1,0.600913787,0.418292814,0.559110428,0.54814434,TRUE,,,,,,,,,,,,,,,,,,,,,,,,,,,,,,,,,
330418,2023-11-03_17h16.17.951,two_step_task_legacy,2022.2.4,Win32,60.89763108,21,learning,0,resources/alien3_norm.png,0.568809314,resources/alien4_norm.png,0.566532625,TRUE,TRUE,2,0.508874831,purple,x,0.2649,alien4,TRUE,2,0.350941128,13,1,0.566532625,m,0.3999,0,21,21,21,1,0.583272345,0.422500338,0.568809314,0.566532625,FALSE,,,,,,,,,,,,,,,,,,,,,,,,,,,,,,,,,
330418,2023-11-03_17h16.17.951,two_step_task_legacy,2022.2.4,Win32,60.89763108,21,learning,0,resources/alien4_norm.png,0.561719482,resources/alien3_norm.png,0.55652811,TRUE,TRUE,2,0.549890916,purple,x,0.2553,alien4,TRUE,2,0.329472006,14,1,0.561719482,x,0.5657,0,22,22,22,1,0.609961034,0.394003844,0.55652811,0.561719482,TRUE,,,,,,,,,,,,,,,,,,,,,,,,,,,,,,,,,
330418,2023-11-03_17h16.17.951,two_step_task_legacy,2022.2.4,Win32,60.89763108,21,learning,1,resources/alien3_norm.png,0.555724238,resources/alien4_norm.png,0.544931665,TRUE,TRUE,2,0.922369385,purple,m,0.1044,alien3,TRUE,2,0.199757402,15,1,0.555724238,x,0.402,0,23,23,23,1,0.590272679,0.394651748,0.555724238,0.544931665,FALSE,,,,,,,,,,,,,,,,,,,,,,,,,,,,,,,,,
330418,2023-11-03_17h16.17.951,two_step_task_legacy,2022.2.4,Win32,60.89763108,21,learning,1,resources/alien4_norm.png,0.55069953,resources/alien3_norm.png,0.576639227,TRUE,TRUE,2,0.818955071,purple,m,0.2539,alien4,TRUE,2,0.526706146,16,1,0.55069953,x,0.4064,0,24,24,24,1,0.605617399,0.431176562,0.576639227,0.55069953,TRUE,,,,,,,,,,,,,,,,,,,,,,,,,,,,,,,,,
330418,2023-11-03_17h16.17.951,two_step_task_legacy,2022.2.4,Win32,60.89763108,21,learning,0,resources/alien2_norm.png,0.420786543,resources/alien1_norm.png,0.613091185,TRUE,TRUE,3,0.166611492,red,m,1.0947,alien2,TRUE,3,0.752282551,16,0,0.420786543,x,0.3111,0,25,25,25,1,0.613091185,0.420786543,0.557257773,0.534624757,TRUE,,,,,,,,,,,,,,,,,,,,,,,,,,,,,,,,,
330418,2023-11-03_17h16.17.951,two_step_task_legacy,2022.2.4,Win32,60.89763108,21,learning,1,resources/alien1_norm.png,0.595872609,resources/alien2_norm.png,0.450532133,TRUE,TRUE,3,0.824249175,red,x,0.0665,alien2,TRUE,2,0.145422007,17,1,0.450532133,m,0.382,0,26,26,26,1,0.595872609,0.450532133,0.576094467,0.545850614,FALSE,,,,,,,,,,,,,,,,,,,,,,,,,,,,,,,,,
330418,2023-11-03_17h16.17.951,two_step_task_legacy,2022.2.4,Win32,60.89763108,21,learning,0,resources/alien1_norm.png,0.643406653,resources/alien2_norm.png,0.477668773,TRUE,TRUE,3,0.145564774,red,m,0.2834,alien2,TRUE,2,0.302994526,18,1,0.477668773,m,0.3609,0,27,27,27,1,0.643406653,0.477668773,0.592199407,0.511001288,FALSE,,,,,,,,,,,,,,,,,,,,,,,,,,,,,,,,,
330418,2023-11-03_17h16.17.951,two_step_task_legacy,2022.2.4,Win32,60.89763108,21,learning,0,resources/alien4_norm.png,0.503306501,resources/alien3_norm.png,0.634639671,TRUE,TRUE,2,0.024062804,purple,x,0.406,alien4,TRUE,2,0.236450489,19,1,0.503306501,x,0.4672,0,28,28,28,1,0.627060866,0.482589761,0.634639671,0.503306501,TRUE,,,,,,,,,,,,,,,,,,,,,,,,,,,,,,,,,
330418,2023-11-03_17h16.17.951,two_step_task_legacy,2022.2.4,Win32,60.89763108,21,learning,0,resources/alien2_norm.png,0.473630358,resources/alien1_norm.png,0.659503493,TRUE,TRUE,3,0.177052867,red,m,0.0054,alien1,TRUE,2,0.578988734,20,1,0.659503493,m,0.3165,0,29,29,29,1,0.659503493,0.473630358,0.636367601,0.500905699,TRUE,,,,,,,,,,,,,,,,,,,,,,,,,,,,,,,,,
330418,2023-11-03_17h16.17.951,two_step_task_legacy,2022.2.4,Win32,60.89763108,21,learning,0,resources/alien2_norm.png,0.501315139,resources/alien1_norm.png,0.633289649,TRUE,TRUE,3,0.471357078,red,m,0.2332,alien1,TRUE,2,0.345315064,21,1,0.633289649,m,0.3228,0,30,30,30,1,0.633289649,0.501315139,0.637914928,0.501224844,TRUE,,,,,,,,,,,,,,,,,,,,,,,,,,,,,,,,,
330418,2023-11-03_17h16.17.951,two_step_task_legacy,2022.2.4,Win32,60.89763108,21,learning,1,resources/alien2_norm.png,0.486335384,resources/alien1_norm.png,0.601309191,TRUE,TRUE,3,0.939079501,red,x,0.1329,alien1,TRUE,3,0.684695319,21,0,0.601309191,m,0.2292,0,31,31,31,1,0.601309191,0.486335384,0.634843763,0.49511204,TRUE,,,,,,,,,,,,,,,,,,,,,,,,,,,,,,,,,
330418,2023-11-03_17h16.17.951,two_step_task_legacy,2022.2.4,Win32,60.89763108,21,learning,0,resources/alien3_norm.png,0.625739977,resources/alien4_norm.png,0.492316248,TRUE,TRUE,2,0.006168181,purple,x,0.1492,alien3,TRUE,2,0.432243198,22,1,0.625739977,x,0.3401,0,32,32,32,1,0.601010443,0.467762774,0.625739977,0.492316248,FALSE,,,,,,,,,,,,,,,,,,,,,,,,,,,,,,,,,
330418,2023-11-03_17h16.17.951,two_step_task_legacy,2022.2.4,Win32,60.89763108,21,learning,0,resources/alien4_norm.png,0.545653013,resources/alien3_norm.png,0.615828505,TRUE,TRUE,2,0.320057064,purple,x,0.3603,alien3,TRUE,2,0.449581659,23,1,0.615828505,m,0.3873,0,33,33,33,1,0.622204761,0.465440023,0.615828505,0.545653013,TRUE,,,,,,,,,,,,,,,,,,,,,,,,,,,,,,,,,
330418,2023-11-03_17h16.17.951,two_step_task_legacy,2022.2.4,Win32,60.89763108,21,learning,1,resources/alien2_norm.png,0.493981228,resources/alien1_norm.png,0.627316779,TRUE,TRUE,3,0.999776824,red,x,0.2678,alien2,TRUE,2,0.446526408,24,1,0.493981228,x,0.3114,0,34,34,34,1,0.627316779,0.493981228,0.59000377,0.495749277,TRUE,,,,,,,,,,,,,,,,,,,,,,,,,,,,,,,,,
330418,2023-11-03_17h16.17.951,two_step_task_legacy,2022.2.4,Win32,60.89763108,21,learning,1,resources/alien2_norm.png,0.477218043,resources/alien1_norm.png,0.598288248,TRUE,TRUE,3,0.83323459,red,x,0.3103,alien1,TRUE,2,0.436434958,25,1,0.598288248,m,0.6946,0,35,35,35,1,0.598288248,0.477218043,0.553937559,0.524611694,TRUE,,,,,,,,,,,,,,,,,,,,,,,,,,,,,,,,,
330418,2023-11-03_17h16.17.951,two_step_task_legacy,2022.2.4,Win32,60.89763108,21,learning,0,resources/alien2_norm.png,0.493000476,resources/alien1_norm.png,0.614262045,TRUE,TRUE,3,0.163816282,red,m,0.3428,alien1,TRUE,3,0.640271055,25,0,0.614262045,m,0.3069,0,36,36,36,1,0.614262045,0.493000476,0.56908871,0.543066073,TRUE,,,,,,,,,,,,,,,,,,,,,,,,,,,,,,,,,
330418,2023-11-03_17h16.17.951,two_step_task_legacy,2022.2.4,Win32,60.89763108,21,learning,1,resources/alien3_norm.png,0.558161717,resources/alien4_norm.png,0.50431812,TRUE,TRUE,2,0.921494649,purple,m,0.233,alien3,TRUE,3,0.896653375,25,0,0.558161717,x,0.4491,0,37,37,37,1,0.604854621,0.477881014,0.558161717,0.50431812,FALSE,,,,,,,,,,,,,,,,,,,,,,,,,,,,,,,,,
330418,2023-11-03_17h16.17.951,two_step_task_legacy,2022.2.4,Win32,60.89763108,21,learning,0,resources/alien3_norm.png,0.530772143,resources/alien4_norm.png,0.52797049,TRUE,TRUE,2,0.190050989,purple,x,0.1962,alien3,TRUE,2,0.239465583,26,1,0.530772143,x,0.3988,0,38,38,38,1,0.588574075,0.534531278,0.530772143,0.52797049,FALSE,,,,,,,,,,,,,,,,,,,,,,,,,,,,,,,,,
330418,2023-11-03_17h16.17.951,two_step_task_legacy,2022.2.4,Win32,60.89763108,21,learning,1,resources/alien4_norm.png,0.557222525,resources/alien3_norm.png,0.540735318,TRUE,TRUE,2,0.828032597,purple,m,0.2016,alien3,TRUE,2,0.457815839,27,1,0.540735318,m,0.2842,0,39,39,39,1,0.595909038,0.531132777,0.540735318,0.557222525,TRUE,,,,,,,,,,,,,,,,,,,,,,,,,,,,,,,,,
330418,2023-11-03_17h16.17.951,two_step_task_legacy,2022.2.4,Win32,60.89763108,21,learning,1,resources/alien2_norm.png,0.540223528,resources/alien1_norm.png,0.574771467,TRUE,TRUE,3,0.886751923,red,x,0.0006,alien2,TRUE,2,0.176238743,28,1,0.540223528,x,2.5349,0,40,40,40,1,0.574771467,0.540223528,0.494666279,0.583638711,TRUE,,,,,,,,,,,,,,,,,,,,,,,,,,,,,,,,,
330418,2023-11-03_17h16.17.951,two_step_task_legacy,2022.2.4,Win32,60.89763108,21,learning,0,resources/alien3_norm.png,0.50627781,resources/alien4_norm.png,0.5945859,TRUE,TRUE,2,0.39937802,purple,x,0.1345,alien3,TRUE,2,0.491047289,29,1,0.50627781,x,0.3972,0,41,41,41,1,0.584272001,0.559165838,0.50627781,0.5945859,FALSE,,,,,,,,,,,,,,,,,,,,,,,,,,,,,,,,,
330418,2023-11-03_17h16.17.951,two_step_task_legacy,2022.2.4,Win32,60.89763108,21,learning,1,resources/alien2_norm.png,0.617175123,resources/alien1_norm.png,0.630034319,TRUE,TRUE,3,0.958085171,red,x,0.129,alien2,TRUE,3,0.680893797,29,0,0.617175123,x,0.2529,0,42,42,42,1,0.630034319,0.617175123,0.516590823,0.640132819,TRUE,,,,,,,,,,,,,,,,,,,,,,,,,,,,,,,,,
330418,2023-11-03_17h16.17.951,two_step_task_legacy,2022.2.4,Win32,60.89763108,21,learning,0,resources/alien3_norm.png,0.487932716,resources/alien4_norm.png,0.607580451,TRUE,TRUE,2,0.174640234,purple,x,1.0293,alien3,TRUE,3,0.812815824,29,0,0.487932716,x,0.8437,0,43,43,43,1,0.619075687,0.616003092,0.487932716,0.607580451,FALSE,,,,,,,,,,,,,,,,,,,,,,,,,,,,,,,,,
330418,2023-11-03_17h16.17.951,two_step_task_legacy,2022.2.4,Win32,60.89763108,21,learning,1,resources/alien2_norm.png,0.582526972,resources/alien1_norm.png,0.605356515,TRUE,TRUE,3,0.852232355,red,x,0.1068,alien2,TRUE,2,0.227245949,30,1,0.582526972,x,0.4332,0,44,44,44,1,0.605356515,0.582526972,0.519583753,0.572653625,TRUE,,,,,,,,,,,,,,,,,,,,,,,,,,,,,,,,,
330418,2023-11-03_17h16.17.951,two_step_task_legacy,2022.2.4,Win32,60.89763108,21,learning,1,resources/alien2_norm.png,0.577200294,resources/alien1_norm.png,0.557081221,TRUE,TRUE,3,0.709137241,red,x,0.1685,alien2,TRUE,2,0.412250984,31,1,0.577200294,x,0.6467,0,45,45,45,1,0.557081221,0.577200294,0.511061951,0.574858948,TRUE,,,,,,,,,,,,,,,,,,,,,,,,,,,,,,,,,
330418,2023-11-03_17h16.17.951,two_step_task_legacy,2022.2.4,Win32,60.89763108,21,learning,0,resources/alien2_norm.png,0.598845262,resources/alien1_norm.png,0.555291304,TRUE,TRUE,3,0.693390659,red,m,0.1812,alien1,TRUE,3,0.938717265,31,0,0.555291304,m,0.2492,0,46,46,46,1,0.555291304,0.598845262,0.532871987,0.595061916,TRUE,,,,,,,,,,,,,,,,,,,,,,,,,,,,,,,,,
330418,2023-11-03_17h16.17.951,two_step_task_legacy,2022.2.4,Win32,60.89763108,21,learning,0,resources/alien1_norm.png,0.578601924,resources/alien2_norm.png,0.598532069,TRUE,TRUE,3,0.269813897,red,m,0.2515,alien2,TRUE,3,0.883224409,31,0,0.598532069,m,0.2175,0,47,47,47,1,0.578601924,0.598532069,0.529726075,0.585828111,FALSE,,,,,,,,,,,,,,,,,,,,,,,,,,,,,,,,,
330418,2023-11-03_17h16.17.951,two_step_task_legacy,2022.2.4,Win32,60.89763108,21,learning,1,resources/alien4_norm.png,0.573653694,resources/alien3_norm.png,0.558730333,TRUE,TRUE,2,0.73493923,purple,m,0.0416,alien3,TRUE,2,0.510431988,32,1,0.558730333,m,0.4835,0,48,48,48,1,0.542249819,0.586538679,0.558730333,0.573653694,TRUE,,,,,,,,,,,,,,,,,,,,,,,,,,,,,,,,,
330418,2023-11-03_17h16.17.951,two_step_task_legacy,2022.2.4,Win32,60.89763108,21,learning,0,resources/alien1_norm.png,0.519538965,resources/alien2_norm.png,0.584343304,TRUE,TRUE,3,0.378064199,red,m,0.2787,alien1,TRUE,2,0.372211783,33,1,0.519538965,x,0.5568,0,49,49,49,1,0.519538965,0.584343304,0.622833908,0.600621292,FALSE,,,,,,,,,,,,,,,,,,,,,,,,,,,,,,,,,
330418,2023-11-03_17h16.17.951,two_step_task_legacy,2022.2.4,Win32,60.89763108,21,learning,1,resources/alien3_norm.png,0.620348506,resources/alien4_norm.png,0.607356483,TRUE,TRUE,2,0.843844879,purple,m,0.1322,alien3,TRUE,3,0.710018897,33,0,0.620348506,x,0.4506,0,50,50,50,1,0.554572557,0.581709677,0.620348506,0.607356483,FALSE,,,,,,,,,,,,,,,,,,,,,,,,,,,,,,,,,
330418,2023-11-03_17h16.17.951,two_step_task_legacy,2022.2.4,Win32,60.89763108,21,learning,1,resources/alien4_norm.png,0.607009894,resources/alien3_norm.png,0.6031703,TRUE,TRUE,2,0.90137369,purple,m,1.5685,alien4,TRUE,2,0.070810944,34,1,0.607009894,x,1.7804,0,51,51,51,1,0.547889004,0.612718726,0.6031703,0.607009894,TRUE,,,,,,,,,,,,,,,,,,,,,,,,,,,,,,,,,
330418,2023-11-03_17h16.17.951,two_step_task_legacy,2022.2.4,Win32,60.89763108,21,learning,0,resources/alien3_norm.png,0.557769273,resources/alien4_norm.png,0.588840226,TRUE,TRUE,2,0.635365646,purple,x,0.7398,alien3,TRUE,2,0.546883969,35,1,0.557769273,x,0.3286,0,52,52,52,1,0.544060582,0.595407189,0.557769273,0.588840226,FALSE,,,,,,,,,,,,,,,,,,,,,,,,,,,,,,,,,
330418,2023-11-03_17h16.17.951,two_step_task_legacy,2022.2.4,Win32,60.89763108,21,learning,0,resources/alien2_norm.png,0.593072845,resources/alien1_norm.png,0.545266218,TRUE,TRUE,3,0.558085516,red,m,0.283,alien1,TRUE,3,0.921519865,35,0,0.545266218,m,0.299,0,53,53,53,1,0.545266218,0.593072845,0.542082465,0.626166645,TRUE,,,,,,,,,,,,,,,,,,,,,,,,,,,,,,,,,
330418,2023-11-03_17h16.17.951,two_step_task_legacy,2022.2.4,Win32,60.89763108,21,learning,0,resources/alien2_norm.png,0.617187035,resources/alien1_norm.png,0.533636761,TRUE,TRUE,3,0.187055384,red,m,0.2832,alien1,TRUE,2,0.057639574,36,1,0.533636761,m,0.334,0,54,54,54,1,0.533636761,0.617187035,0.542691053,0.641639284,TRUE,,,,,,,,,,,,,,,,,,,,,,,,,,,,,,,,,
330418,2023-11-03_17h16.17.951,two_step_task_legacy,2022.2.4,Win32,60.89763108,21,learning,1,resources/alien1_norm.png,0.53071874,resources/alien2_norm.png,0.642883939,TRUE,TRUE,3,0.899301979,red,x,0.3146,alien1,TRUE,2,0.002342928,37,1,0.53071874,x,0.4008,0,55,55,55,1,0.53071874,0.642883939,0.540688793,0.613630346,FALSE,,,,,,,,,,,,,,,,,,,,,,,,,,,,,,,,,
330418,2023-11-03_17h16.17.951,two_step_task_legacy,2022.2.4,Win32,60.89763108,21,learning,1,resources/alien4_norm.png,0.604506511,resources/alien3_norm.png,0.506133513,TRUE,TRUE,2,0.852765946,purple,m,0.2866,alien3,TRUE,3,0.725077675,37,0,0.506133513,m,0.4428,0,56,56,56,1,0.508540082,0.642374716,0.506133513,0.604506511,TRUE,,,,,,,,,,,,,,,,,,,,,,,,,,,,,,,,,
330418,2023-11-03_17h16.17.951,two_step_task_legacy,2022.2.4,Win32,60.89763108,21,learning,0,resources/alien3_norm.png,0.531679577,resources/alien4_norm.png,0.600516429,TRUE,TRUE,2,0.31705656,purple,x,0.2901,alien3,TRUE,2,0.310470302,38,1,0.531679577,x,0.3839,0,57,57,57,1,0.519337081,0.646260215,0.531679577,0.600516429,FALSE,,,,,,,,,,,,,,,,,,,,,,,,,,,,,,,,,
330418,2023-11-03_17h16.17.951,two_step_task_legacy,2022.2.4,Win32,60.89763108,21,learning,1,resources/alien2_norm.png,0.644987866,resources/alien1_norm.png,0.515119314,TRUE,TRUE,3,0.801514724,red,x,0.1128,alien1,TRUE,3,0.522988085,38,0,0.515119314,m,0.4121,0,58,58,58,1,0.515119314,0.644987866,0.525737079,0.596579648,TRUE,,,,,,,,,,,,,,,,,,,,,,,,,,,,,,,,,
330418,2023-11-03_17h16.17.951,two_step_task_legacy,2022.2.4,Win32,60.89763108,21,learning,0,resources/alien1_norm.png,0.482207563,resources/alien2_norm.png,0.621644772,TRUE,TRUE,3,0.428883331,red,m,0.2332,alien1,TRUE,3,0.489454101,38,0,0.482207563,x,0.3687,0,59,59,59,1,0.482207563,0.621644772,0.535111942,0.600256718,FALSE,,,,,,,,,,,,,,,,,,,,,,,,,,,,,,,,,
330418,2023-11-03_17h16.17.951,two_step_task_legacy,2022.2.4,Win32,60.89763108,21,learning,1,resources/alien1_norm.png,0.450055305,resources/alien2_norm.png,0.66669687,TRUE,TRUE,3,0.70716961,red,x,0.2921,alien2,TRUE,2,0.65771012,39,1,0.66669687,m,0.399,0,60,60,60,1,0.450055305,0.66669687,0.514338736,0.607153047,FALSE,,,,,,,,,,,,,,,,,,,,,,,,,,,,,,,,,
330418,2023-11-03_17h16.17.951,two_step_task_legacy,2022.2.4,Win32,60.89763108,21,learning,1,resources/alien2_norm.png,0.658101899,resources/alien1_norm.png,0.419368289,TRUE,TRUE,3,0.710194309,red,x,0.4608,alien1,TRUE,3,0.913104886,39,0,0.419368289,m,0.3947,0,61,61,61,1,0.419368289,0.658101899,0.471642866,0.583823796,TRUE,,,,,,,,,,,,,,,,,,,,,,,,,,,,,,,,,
330418,2023-11-03_17h16.17.951,two_step_task_legacy,2022.2.4,Win32,60.89763108,21,learning,0,resources/alien2_norm.png,0.679582459,resources/alien1_norm.png,0.476081837,TRUE,TRUE,3,0.22880857,red,m,0.2705,alien1,TRUE,3,0.585727844,39,0,0.476081837,m,0.3583,0,62,62,62,1,0.476081837,0.679582459,0.495383864,0.577391808,TRUE,,,,,,,,,,,,,,,,,,,,,,,,,,,,,,,,,
330418,2023-11-03_17h16.17.951,two_step_task_legacy,2022.2.4,Win32,60.89763108,21,learning,1,resources/alien4_norm.png,0.584382346,resources/alien3_norm.png,0.492482455,TRUE,TRUE,2,0.986802379,purple,m,0.32,alien4,TRUE,3,0.718079016,39,0,0.584382346,x,0.1181,0,63,63,63,1,0.46564135,0.656019472,0.492482455,0.584382346,TRUE,,,,,,,,,,,,,,,,,,,,,,,,,,,,,,,,,
330418,2023-11-03_17h16.17.951,two_step_task_legacy,2022.2.4,Win32,60.89763108,21,learning,1,resources/alien4_norm.png,0.579903099,resources/alien3_norm.png,0.473090091,TRUE,TRUE,2,0.703159622,purple,m,0.2817,alien3,TRUE,3,0.935967794,39,0,0.473090091,m,0.4201,0,64,64,64,1,0.477315304,0.650679566,0.473090091,0.579903099,TRUE,,,,,,,,,,,,,,,,,,,,,,,,,,,,,,,,,
330418,2023-11-03_17h16.17.951,two_step_task_legacy,2022.2.4,Win32,60.89763108,21,learning,0,resources/alien3_norm.png,0.46600528,resources/alien4_norm.png,0.57197952,TRUE,TRUE,2,0.375586061,purple,x,0.078,alien3,TRUE,2,0.350195865,40,1,0.46600528,x,0.0962,0,65,65,65,1,0.46552265,0.62334515,0.46600528,0.57197952,FALSE,,,,,,,,,,,,,,,,,,,,,,,,,,,,,,,,,
330418,2023-11-03_17h16.17.951,two_step_task_legacy,2022.2.4,Win32,60.89763108,21,learning,0,resources/alien3_norm.png,0.423812817,resources/alien4_norm.png,0.610089415,TRUE,TRUE,2,0.26498538,purple,x,0.0573,alien4,TRUE,2,0.476359533,41,1,0.610089415,m,0.1365,0,66,66,66,1,0.475612123,0.625851031,0.423812817,0.610089415,FALSE,,,,,,,,,,,,,,,,,,,,,,,,,,,,,,,,,
330418,2023-11-03_17h16.17.951,two_step_task_legacy,2022.2.4,Win32,60.89763108,21,learning,1,resources/alien4_norm.png,0.604504253,resources/alien3_norm.png,0.389156213,TRUE,TRUE,2,0.874697315,purple,m,0.1016,alien4,TRUE,2,0.501725572,42,1,0.604504253,x,0.4412,0,67,67,67,1,0.488225722,0.591916813,0.389156213,0.604504253,TRUE,,,,,,,,,,,,,,,,,,,,,,,,,,,,,,,,,
330418,2023-11-03_17h16.17.951,two_step_task_legacy,2022.2.4,Win32,60.89763108,21,learning,0,resources/alien2_norm.png,0.566650103,resources/alien1_norm.png,0.447473516,TRUE,TRUE,3,0.447363159,red,m,0.1673,alien1,TRUE,2,0.076178656,43,1,0.447473516,m,0.0225,0,68,68,68,1,0.447473516,0.566650103,0.426911286,0.600400303,TRUE,,,,,,,,,,,,,,,,,,,,,,,,,,,,,,,,,
330418,2023-11-03_17h16.17.951,two_step_task_legacy,2022.2.4,Win32,60.89763108,21,learning,0,resources/alien3_norm.png,0.419171163,resources/alien4_norm.png,0.645762646,TRUE,TRUE,2,0.341974403,purple,x,0.0585,alien3,TRUE,3,0.626420485,43,0,0.419171163,x,0.3822,0,69,69,69,1,0.446833039,0.601017704,0.419171163,0.645762646,FALSE,,,,,,,,,,,,,,,,,,,,,,,,,,,,,,,,,
330418,2023-11-03_17h16.17.951,two_step_task_legacy,2022.2.4,Win32,60.89763108,21,learning,1,resources/alien3_norm.png,0.381881382,resources/alien4_norm.png,0.679798258,TRUE,TRUE,2,0.884034405,purple,m,0.2126,alien4,TRUE,3,0.779444399,43,0,0.679798258,m,0.3052,0,70,70,70,1,0.46229688,0.577212844,0.381881382,0.679798258,FALSE,,,,,,,,,,,,,,,,,,,,,,,,,,,,,,,,,
330418,2023-11-03_17h16.17.951,two_step_task_legacy,2022.2.4,Win32,60.89763108,21,learning,0,resources/alien3_norm.png,0.372866063,resources/alien4_norm.png,0.744246282,TRUE,TRUE,2,0.001052159,purple,x,0.0328,alien3,TRUE,2,0.218419783,44,1,0.372866063,x,0.2822,0,71,71,71,1,0.447857256,0.585168326,0.372866063,0.744246282,FALSE,,,,,,,,,,,,,,,,,,,,,,,,,,,,,,,,,
330418,2023-11-03_17h16.17.951,two_step_task_legacy,2022.2.4,Win32,60.89763108,21,learning,1,resources/alien1_norm.png,0.469156344,resources/alien2_norm.png,0.590253845,TRUE,TRUE,3,0.951753469,red,x,0.1623,alien1,TRUE,2,0.181651463,45,1,0.469156344,x,0.2327,0,72,72,72,1,0.469156344,0.590253845,0.365658811,0.738925901,FALSE,,,,,,,,,,,,,,,,,,,,,,,,,,,,,,,,,
330418,2023-11-03_17h16.17.951,two_step_task_legacy,2022.2.4,Win32,60.89763108,21,learning,0,resources/alien3_norm.png,0.368495441,resources/alien4_norm.png,0.745967699,TRUE,TRUE,2,0.393575278,purple,x,0.2029,alien4,TRUE,3,0.914799407,45,0,0.745967699,m,0.3157,0,73,73,73,1,0.524386296,0.606410566,0.368495441,0.745967699,FALSE,,,,,,,,,,,,,,,,,,,,,,,,,,,,,,,,,
330418,2023-11-03_17h16.17.951,two_step_task_legacy,2022.2.4,Win32,60.89763108,21,learning,0,resources/alien3_norm.png,0.382592524,resources/alien4_norm.png,0.747056302,TRUE,TRUE,2,0.09318335,purple,x,0.0488,alien4,TRUE,2,0.402688575,46,1,0.747056302,m,0.3995,0,74,74,74,1,0.546195851,0.610187899,0.382592524,0.747056302,FALSE,,,,,,,,,,,,,,,,,,,,,,,,,,,,,,,,,
330418,2023-11-03_17h16.17.951,two_step_task_legacy,2022.2.4,Win32,60.89763108,21,learning,0,resources/alien3_norm.png,0.365808589,resources/alien4_norm.png,0.727966599,TRUE,TRUE,2,0.18550162,purple,x,0.1554,alien3,TRUE,2,0.196723756,47,1,0.365808589,x,0.0837,0,75,75,75,1,0.516674318,0.630410906,0.365808589,0.727966599,FALSE,,,,,,,,,,,,,,,,,,,,,,,,,,,,,,,,,
330418,2023-11-03_17h16.17.951,two_step_task_legacy,2022.2.4,Win32,60.89763108,21,learning,0,resources/alien4_norm.png,0.747496672,resources/alien3_norm.png,0.376049182,TRUE,TRUE,2,0.620952429,purple,x,0.0171,alien3,TRUE,3,0.823141991,47,0,0.376049182,m,0.3223,0,76,76,76,1,0.513333865,0.600336462,0.376049182,0.747496672,TRUE,,,,,,,,,,,,,,,,,,,,,,,,,,,,,,,,,
330418,2023-11-03_17h16.17.951,two_step_task_legacy,2022.2.4,Win32,60.89763108,21,learning,0,resources/alien1_norm.png,0.533414093,resources/alien2_norm.png,0.616695744,TRUE,TRUE,3,0.10432605,red,m,0.1434,alien2,TRUE,2,0.097609617,48,1,0.616695744,m,0.2728,0,77,77,77,1,0.533414093,0.616695744,0.366792972,0.743468027,FALSE,,,,,,,,,,,,,,,,,,,,,,,,,,,,,,,,,
330418,2023-11-03_17h16.17.951,two_step_task_legacy,2022.2.4,Win32,60.89763108,21,learning,0,resources/alien1_norm.png,0.522426186,resources/alien2_norm.png,0.626472856,TRUE,TRUE,3,0.555694049,red,m,0.0642,alien2,TRUE,3,0.994621206,48,0,0.626472856,m,0.0898,0,78,78,78,1,0.522426186,0.626472856,0.342893528,0.729281693,FALSE,,,,,,,,,,,,,,,,,,,,,,,,,,,,,,,,,
330418,2023-11-03_17h16.17.951,two_step_task_legacy,2022.2.4,Win32,60.89763108,21,learning,0,resources/alien2_norm.png,0.612363775,resources/alien1_norm.png,0.537512346,TRUE,TRUE,3,0.334961908,red,m,0.0941,alien1,TRUE,2,0.305330503,49,1,0.537512346,m,0.2062,0,79,79,79,1,0.537512346,0.612363775,0.328275201,0.732241262,TRUE,,,,,,,,,,,,,,,,,,,,,,,,,,,,,,,,,
330418,2023-11-03_17h16.17.951,two_step_task_legacy,2022.2.4,Win32,60.89763108,21,learning,0,resources/alien1_norm.png,0.564643748,resources/alien2_norm.png,0.646040762,TRUE,TRUE,3,0.251107855,red,m,0.0338,alien2,TRUE,2,0.041340234,50,1,0.646040762,m,0.0271,0,80,80,80,1,0.564643748,0.646040762,0.339910551,0.703847115,FALSE,,,,,,,,,,,,,,,,,,,,,,,,,,,,,,,,,
330418,2023-11-03_17h16.17.951,two_step_task_legacy,2022.2.4,Win32,60.89763108,21,learning,1,resources/alien1_norm.png,0.574339547,resources/alien2_norm.png,0.667820554,TRUE,TRUE,3,0.872554372,red,x,0.0476,alien1,TRUE,3,0.906008148,50,0,0.574339547,x,0.284,0,81,81,81,1,0.574339547,0.667820554,0.355880374,0.713459204,FALSE,,,,,,,,,,,,,,,,,,,,,,,,,,,,,,,,,
330418,2023-11-03_17h16.17.951,two_step_task_legacy,2022.2.4,Win32,60.89763108,21,learning,0,resources/alien4_norm.png,0.723108132,resources/alien3_norm.png,0.383992384,TRUE,TRUE,2,0.317313959,purple,x,0.2335,alien4,TRUE,2,0.475938059,51,1,0.723108132,x,0.3892,0,82,82,82,1,0.55697673,0.698602971,0.383992384,0.723108132,TRUE,,,,,,,,,,,,,,,,,,,,,,,,,,,,,,,,,
330418,2023-11-03_17h16.17.951,two_step_task_legacy,2022.2.4,Win32,60.89763108,21,learning,1,resources/alien2_norm.png,0.688535499,resources/alien1_norm.png,0.520995768,TRUE,TRUE,3,0.992023329,red,x,0.4896,alien1,TRUE,2,0.439393634,52,1,0.520995768,m,0.8422,0,83,83,83,1,0.520995768,0.688535499,0.388691416,0.74849031,TRUE,,,,,,,,,,,,,,,,,,,,,,,,,,,,,,,,,
330418,2023-11-03_17h16.17.951,two_step_task_legacy,2022.2.4,Win32,60.89763108,21,learning,0,resources/alien2_norm.png,0.710364652,resources/alien1_norm.png,0.560357955,TRUE,TRUE,3,0.643985052,red,m,0.0499,alien1,TRUE,2,0.552323502,53,1,0.560357955,m,0.3235,0,84,84,84,1,0.560357955,0.710364652,0.394471814,0.708470458,TRUE,,,,,,,,,,,,,,,,,,,,,,,,,,,,,,,,,
330418,2023-11-03_17h16.17.951,two_step_task_legacy,2022.2.4,Win32,60.89763108,21,learning,0,resources/alien4_norm.png,0.701290951,resources/alien3_norm.png,0.366165455,TRUE,TRUE,2,0.054585712,purple,x,0.3012,alien4,TRUE,3,0.760604055,53,0,0.701290951,x,0.37,0,85,85,85,1,0.642492048,0.694563603,0.366165455,0.701290951,TRUE,,,,,,,,,,,,,,,,,,,,,,,,,,,,,,,,,
330418,2023-11-03_17h16.17.951,two_step_task_legacy,2022.2.4,Win32,60.89763108,21,learning,0,resources/alien4_norm.png,0.68653895,resources/alien3_norm.png,0.339851899,TRUE,TRUE,2,0.046403619,purple,x,0.2616,alien3,TRUE,2,0.333796097,54,1,0.339851899,m,0.2043,0,86,86,86,1,0.659827268,0.693119638,0.339851899,0.68653895,TRUE,,,,,,,,,,,,,,,,,,,,,,,,,,,,,,,,,
330418,2023-11-03_17h16.17.951,two_step_task_legacy,2022.2.4,Win32,60.89763108,21,learning,1,resources/alien2_norm.png,0.693358738,resources/alien1_norm.png,0.662335746,TRUE,TRUE,3,0.735175,red,x,0.0999,alien2,TRUE,2,0.429446521,55,1,0.693358738,x,0.3166,0,87,87,87,1,0.662335746,0.693358738,0.344034175,0.714890726,TRUE,,,,,,,,,,,,,,,,,,,,,,,,,,,,,,,,,
330418,2023-11-03_17h16.17.951,two_step_task_legacy,2022.2.4,Win32,60.89763108,21,learning,0,resources/alien3_norm.png,0.317764846,resources/alien4_norm.png,0.686498284,TRUE,TRUE,2,0.606762802,purple,x,0.0338,alien4,TRUE,2,0.611344864,56,1,0.686498284,m,0.2761,0,88,88,88,1,0.654953403,0.711283868,0.317764846,0.686498284,FALSE,,,,,,,,,,,,,,,,,,,,,,,,,,,,,,,,,
330418,2023-11-03_17h16.17.951,two_step_task_legacy,2022.2.4,Win32,60.89763108,21,learning,0,resources/alien2_norm.png,0.696475853,resources/alien1_norm.png,0.616516022,TRUE,TRUE,3,0.588671871,red,m,0.183,alien1,TRUE,2,0.327457708,57,1,0.616516022,m,0.5551,0,89,89,89,1,0.616516022,0.696475853,0.351001491,0.679595828,TRUE,,,,,,,,,,,,,,,,,,,,,,,,,,,,,,,,,
330418,2023-11-03_17h16.17.951,two_step_task_legacy,2022.2.4,Win32,60.89763108,21,learning,0,resources/alien1_norm.png,0.617393134,resources/alien2_norm.png,0.712975203,TRUE,TRUE,3,0.693250472,red,m,0.0839,alien1,TRUE,2,0.328729238,58,1,0.617393134,x,0.3129,0,90,90,90,1,0.617393134,0.712975203,0.333950803,0.65457047,FALSE,,,,,,,,,,,,,,,,,,,,,,,,,,,,,,,,,
330418,2023-11-03_17h16.17.951,two_step_task_legacy,2022.2.4,Win32,60.89763108,21,learning,1,resources/alien3_norm.png,0.333164568,resources/alien4_norm.png,0.68681226,TRUE,TRUE,2,0.822108414,purple,m,0.1689,alien4,TRUE,3,0.9844349,58,0,0.68681226,m,0.0006,0,91,91,91,1,0.605248488,0.727979256,0.333164568,0.68681226,FALSE,,,,,,,,,,,,,,,,,,,,,,,,,,,,,,,,,
330418,2023-11-03_17h16.17.951,two_step_task_legacy,2022.2.4,Win32,60.89763108,21,learning,0,resources/alien4_norm.png,0.695375305,resources/alien3_norm.png,0.335050717,TRUE,TRUE,2,0.163090829,purple,x,0.0674,alien4,TRUE,2,0.290039375,59,1,0.695375305,x,0.0839,0,92,92,92,1,0.597920866,0.710049944,0.335050717,0.695375305,TRUE,,,,,,,,,,,,,,,,,,,,,,,,,,,,,,,,,
330418,2023-11-03_17h16.17.951,two_step_task_legacy,2022.2.4,Win32,60.89763108,21,learning,0,resources/alien4_norm.png,0.705704451,resources/alien3_norm.png,0.361676132,TRUE,TRUE,2,0.279275196,purple,x,0.1235,alien4,TRUE,2,0.478124197,60,1,0.705704451,x,0.7836,0,93,93,93,1,0.570087701,0.695892733,0.361676132,0.705704451,TRUE,,,,,,,,,,,,,,,,,,,,,,,,,,,,,,,,,
330418,2023-11-03_17h16.17.951,two_step_task_legacy,2022.2.4,Win32,60.89763108,21,learning,1,resources/alien1_norm.png,0.529720036,resources/alien2_norm.png,0.708120691,TRUE,TRUE,3,0.751070617,red,x,0.2504,alien1,TRUE,3,0.820775081,60,0,0.529720036,x,0.4959,0,94,94,94,1,0.529720036,0.708120691,0.335318237,0.711789496,FALSE,,,,,,,,,,,,,,,,,,,,,,,,,,,,,,,,,
330418,2023-11-03_17h16.17.951,two_step_task_legacy,2022.2.4,Win32,60.89763108,21,learning,1,resources/alien4_norm.png,0.682412233,resources/alien3_norm.png,0.398221116,TRUE,TRUE,2,0.859553433,purple,m,0.2169,alien3,TRUE,2,0.264152362,61,1,0.398221116,m,0.4609,0,95,95,95,1,0.47635657,0.721500672,0.398221116,0.682412233,TRUE,,,,,,,,,,,,,,,,,,,,,,,,,,,,,,,,,
330418,2023-11-03_17h16.17.951,two_step_task_legacy,2022.2.4,Win32,60.89763108,21,learning,1,resources/alien3_norm.png,0.401364405,resources/alien4_norm.png,0.649304922,TRUE,TRUE,2,0.832206346,purple,m,0.0334,alien4,TRUE,2,0.452282774,62,1,0.649304922,m,0.2838,0,96,96,96,1,0.466179965,0.715414355,0.401364405,0.649304922,FALSE,,,,,,,,,,,,,,,,,,,,,,,,,,,,,,,,,
330418,2023-11-03_17h16.17.951,two_step_task_legacy,2022.2.4,Win32,60.89763108,21,learning,0,resources/alien4_norm.png,0.645948713,resources/alien3_norm.png,0.396988401,TRUE,TRUE,2,0.386300894,purple,x,0.0868,alien3,TRUE,3,0.468990375,62,0,0.396988401,m,0.2171,0,97,97,97,1,0.467126539,0.723595882,0.396988401,0.645948713,TRUE,,,,,,,,,,,,,,,,,,,,,,,,,,,,,,,,,
330418,2023-11-03_17h16.17.951,two_step_task_legacy,2022.2.4,Win32,60.89763108,21,learning,0,resources/alien2_norm.png,0.696269276,resources/alien1_norm.png,0.439790307,TRUE,TRUE,3,0.394123494,red,m,0.1068,alien2,TRUE,2,0.496951984,63,1,0.696269276,x,0.1466,0,98,98,98,1,0.439790307,0.696269276,0.433219326,0.668586832,TRUE,,,,,,,,,,,,,,,,,,,,,,,,,,,,,,,,,
330418,2023-11-03_17h16.17.951,two_step_task_legacy,2022.2.4,Win32,60.89763108,21,learning,0,resources/alien2_norm.png,0.659724849,resources/alien1_norm.png,0.464800643,TRUE,TRUE,3,0.435213143,red,m,0.267,alien1,TRUE,2,0.252227225,64,1,0.464800643,m,0.0005,0,99,99,99,1,0.464800643,0.659724849,0.442086132,0.680060197,TRUE,,,,,,,,,,,,,,,,,,,,,,,,,,,,,,,,,
330418,2023-11-03_17h16.17.951,two_step_task_legacy,2022.2.4,Win32,60.89763108,21,learning,1,resources/alien3_norm.png,0.432642845,resources/alien4_norm.png,0.688821162,TRUE,TRUE,2,0.99149535,purple,m,0.1334,alien3,TRUE,3,0.43910954,64,0,0.432642845,x,0.1388,0,100,100,100,1,0.453655036,0.648409952,0.432642845,0.688821162,FALSE,,,,,,,,,,,,,,,,,,,,,,,,,,,,,,,,,
330418,2023-11-03_17h16.17.951,two_step_task_legacy,2022.2.4,Win32,60.89763108,21,learning,0,resources/alien3_norm.png,0.452743872,resources/alien4_norm.png,0.655063209,TRUE,TRUE,2,0.693605213,purple,x,0.1295,alien3,TRUE,3,0.503837258,64,0,0.452743872,x,0.1584,0,101,101,101,1,0.480154937,0.66099901,0.452743872,0.655063209,FALSE,,,,,,,,,,,,,,,,,,,,,,,,,,,,,,,,,
330418,2023-11-03_17h16.17.951,two_step_task_legacy,2022.2.4,Win32,60.89763108,21,learning,1,resources/alien2_norm.png,0.686802619,resources/alien1_norm.png,0.435064291,TRUE,TRUE,3,0.809855818,red,x,0.1799,alien2,TRUE,2,0.404604811,65,1,0.686802619,x,0.016,0,102,102,102,1,0.435064291,0.686802619,0.456887081,0.675596743,TRUE,,,,,,,,,,,,,,,,,,,,,,,,,,,,,,,,,
330418,2023-11-03_17h16.17.951,two_step_task_legacy,2022.2.4,Win32,60.89763108,21,learning,1,resources/alien3_norm.png,0.437649181,resources/alien4_norm.png,0.728894923,TRUE,TRUE,2,0.853968793,purple,m,0.1893,alien4,TRUE,3,0.73797691,65,0,0.728894923,m,0.1828,0,103,103,103,1,0.4274682,0.689975019,0.437649181,0.728894923,FALSE,,,,,,,,,,,,,,,,,,,,,,,,,,,,,,,,,
330418,2023-11-03_17h16.17.951,two_step_task_legacy,2022.2.4,Win32,60.89763108,21,learning,1,resources/alien3_norm.png,0.448066099,resources/alien4_norm.png,0.744590341,TRUE,TRUE,2,0.958992192,purple,m,0.2539,alien4,TRUE,2,0.148976497,66,1,0.744590341,m,0.4895,0,104,104,104,1,0.394205489,0.723807258,0.448066099,0.744590341,FALSE,,,,,,,,,,,,,,,,,,,,,,,,,,,,,,,,,
330418,2023-11-03_17h16.17.951,two_step_task_legacy,2022.2.4,Win32,60.89763108,21,learning,0,resources/alien4_norm.png,0.723819794,resources/alien3_norm.png,0.485443502,TRUE,TRUE,2,0.095873689,purple,x,0.3498,alien3,TRUE,3,0.821738115,66,0,0.485443502,m,1.7048,0,105,105,105,1,0.37371153,0.742093466,0.485443502,0.723819794,TRUE,,,,,,,,,,,,,,,,,,,,,,,,,,,,,,,,,
330418,2023-11-03_17h16.17.951,two_step_task_legacy,2022.2.4,Win32,60.89763108,21,learning,0,resources/alien3_norm.png,0.478530119,resources/alien4_norm.png,0.67031434,TRUE,TRUE,2,0.635445882,purple,x,0.2892,alien3,TRUE,3,0.727359389,66,0,0.478530119,x,0.4125,0,106,106,106,1,0.349275118,0.734634343,0.478530119,0.67031434,FALSE,,,,,,,,,,,,,,,,,,,,,,,,,,,,,,,,,
330418,2023-11-03_17h16.17.951,two_step_task_legacy,2022.2.4,Win32,60.89763108,21,learning,0,resources/alien4_norm.png,0.709673268,resources/alien3_norm.png,0.495373807,TRUE,TRUE,2,0.376863894,purple,x,0.3106,alien3,TRUE,2,0.470968203,67,1,0.495373807,m,0.2321,0,107,107,107,1,0.35021253,0.718841441,0.495373807,0.709673268,TRUE,,,,,,,,,,,,,,,,,,,,,,,,,,,,,,,,,
330418,2023-11-03_17h16.17.951,two_step_task_legacy,2022.2.4,Win32,60.89763108,21,learning,0,resources/alien4_norm.png,0.731898862,resources/alien3_norm.png,0.450735795,TRUE,TRUE,2,0.608020963,purple,x,0.1577,alien4,TRUE,2,0.065752143,68,1,0.731898862,x,0.2328,0,108,108,108,1,0.337348022,0.676963284,0.450735795,0.731898862,TRUE,,,,,,,,,,,,,,,,,,,,,,,,,,,,,,,,,
330418,2023-11-03_17h16.17.951,two_step_task_legacy,2022.2.4,Win32,60.89763108,21,learning,1,resources/alien1_norm.png,0.322911322,resources/alien2_norm.png,0.662157072,TRUE,TRUE,3,0.828387186,red,x,0.0346,alien1,TRUE,3,0.577042501,68,0,0.322911322,x,0.0262,0,109,109,109,1,0.322911322,0.662157072,0.480315234,0.74430369,FALSE,,,,,,,,,,,,,,,,,,,,,,,,,,,,,,,,,
330418,2023-11-03_17h16.17.951,two_step_task_legacy,2022.2.4,Win32,60.89763108,21,learning,0,resources/alien4_norm.png,0.7400153,resources/alien3_norm.png,0.477745384,TRUE,TRUE,2,0.40029432,purple,x,0.1498,alien3,TRUE,2,0.43281026,69,1,0.477745384,m,0.2079,0,110,110,110,1,0.323042006,0.729054729,0.477745384,0.7400153,TRUE,,,,,,,,,,,,,,,,,,,,,,,,,,,,,,,,,
330418,2023-11-03_17h16.17.951,two_step_task_legacy,2022.2.4,Win32,60.89763108,21,learning,0,resources/alien2_norm.png,0.717049686,resources/alien1_norm.png,0.346977723,TRUE,TRUE,3,0.192639974,red,m,0.1253,alien1,TRUE,3,0.485473769,69,0,0.346977723,m,0.0004,0,111,111,111,1,0.346977723,0.717049686,0.502964312,0.740528536,TRUE,,,,,,,,,,,,,,,,,,,,,,,,,,,,,,,,,
330418,2023-11-03_17h16.17.951,two_step_task_legacy,2022.2.4,Win32,60.89763108,21,learning,0,resources/alien1_norm.png,0.332641057,resources/alien2_norm.png,0.710505866,TRUE,TRUE,3,0.095936696,red,m,0.1205,alien2,TRUE,2,0.560563435,70,1,0.710505866,m,0.2117,0,112,112,112,1,0.332641057,0.710505866,0.560076847,0.746181252,FALSE,,,,,,,,,,,,,,,,,,,,,,,,,,,,,,,,,
330418,2023-11-03_17h16.17.951,two_step_task_legacy,2022.2.4,Win32,60.89763108,21,learning,0,resources/alien2_norm.png,0.713556046,resources/alien1_norm.png,0.329582244,TRUE,TRUE,3,0.150079691,red,m,0.0005,alien1,TRUE,2,0.124353136,71,1,0.329582244,m,0.2042,0,113,113,113,1,0.329582244,0.713556046,0.551953466,0.737084193,TRUE,,,,,,,,,,,,,,,,,,,,,,,,,,,,,,,,,
330418,2023-11-03_17h16.17.951,two_step_task_legacy,2022.2.4,Win32,60.89763108,21,learning,0,resources/alien2_norm.png,0.698255739,resources/alien1_norm.png,0.300863762,TRUE,TRUE,3,0.384438796,red,m,0.0839,alien1,TRUE,3,0.502150415,71,0,0.300863762,m,0.1292,0,114,114,114,1,0.300863762,0.698255739,0.54581186,0.722210778,TRUE,,,,,,,,,,,,,,,,,,,,,,,,,,,,,,,,,
330418,2023-11-03_17h16.17.951,two_step_task_legacy,2022.2.4,Win32,60.89763108,21,learning,0,resources/alien1_norm.png,0.335585272,resources/alien2_norm.png,0.683609207,TRUE,TRUE,3,0.67452637,red,m,0.0996,alien2,TRUE,2,0.194637313,72,1,0.683609207,m,0.1722,0,115,115,115,1,0.335585272,0.683609207,0.527422928,0.744852234,FALSE,,,,,,,,,,,,,,,,,,,,,,,,,,,,,,,,,
330418,2023-11-03_17h16.17.951,two_step_task_legacy,2022.2.4,Win32,60.89763108,21,learning,1,resources/alien4_norm.png,0.710357088,resources/alien3_norm.png,0.529277885,TRUE,TRUE,2,0.885463893,purple,m,0.5207,alien3,TRUE,3,0.876940989,72,0,0.529277885,m,0.3745,0,116,116,116,1,0.358671417,0.690248802,0.529277885,0.710357088,TRUE,,,,,,,,,,,,,,,,,,,,,,,,,,,,,,,,,
330418,2023-11-03_17h16.17.951,two_step_task_legacy,2022.2.4,Win32,60.89763108,21,learning,0,resources/alien3_norm.png,0.547665382,resources/alien4_norm.png,0.724019431,TRUE,TRUE,2,0.374266787,purple,x,0.0005,alien3,TRUE,2,0.276282903,73,1,0.547665382,x,0.2885,0,117,117,117,1,0.395365799,0.718538292,0.547665382,0.724019431,FALSE,,,,,,,,,,,,,,,,,,,,,,,,,,,,,,,,,
330418,2023-11-03_17h16.17.951,two_step_task_legacy,2022.2.4,Win32,60.89763108,21,learning,1,resources/alien3_norm.png,0.542102089,resources/alien4_norm.png,0.74235091,TRUE,TRUE,2,0.836270667,purple,m,0.3495,alien4,TRUE,2,0.329470607,74,1,0.74235091,m,0.5039,0,118,118,118,1,0.384016558,0.721594268,0.542102089,0.74235091,FALSE,,,,,,,,,,,,,,,,,,,,,,,,,,,,,,,,,
330418,2023-11-03_17h16.17.951,two_step_task_legacy,2022.2.4,Win32,60.89763108,21,learning,0,resources/alien2_norm.png,0.706850908,resources/alien1_norm.png,0.379194304,TRUE,TRUE,3,0.536433106,red,m,0.3251,alien2,TRUE,3,0.955132146,74,0,0.706850908,x,0.3598,0,119,119,119,1,0.379194304,0.706850908,0.527099802,0.742572012,TRUE,,,,,,,,,,,,,,,,,,,,,,,,,,,,,,,,,
330418,2023-11-03_17h16.17.951,two_step_task_legacy,2022.2.4,Win32,60.89763108,21,learning,1,resources/alien4_norm.png,0.747849489,resources/alien3_norm.png,0.497453415,TRUE,TRUE,2,0.734691591,purple,m,0.1855,alien3,TRUE,3,0.829577161,74,0,0.497453415,m,0.4324,0,120,120,120,1,0.311589413,0.742746316,0.497453415,0.747849489,TRUE,,,,,,,,,,,,,,,,,,,,,,,,,,,,,,,,,
330418,2023-11-03_17h16.17.951,two_step_task_legacy,2022.2.4,Win32,60.89763108,21,learning,0,resources/alien3_norm.png,0.493636211,resources/alien4_norm.png,0.732948846,TRUE,TRUE,2,0.103270584,purple,x,0.2295,alien4,TRUE,2,0.640054277,75,1,0.732948846,m,0.4284,0,121,121,121,1,0.288613638,0.734331013,0.493636211,0.732948846,FALSE,,,,,,,,,,,,,,,,,,,,,,,,,,,,,,,,,
330418,2023-11-03_17h16.17.951,two_step_task_legacy,2022.2.4,Win32,60.89763108,21,learning,1,resources/alien3_norm.png,0.458718952,resources/alien4_norm.png,0.712748711,TRUE,TRUE,2,0.780683576,purple,m,0.2344,alien4,TRUE,2,0.684946274,76,1,0.712748711,m,0.3842,0,122,122,122,1,0.327163232,0.735030185,0.458718952,0.712748711,FALSE,,,,,,,,,,,,,,,,,,,,,,,,,,,,,,,,,
330418,2023-11-03_17h16.17.951,two_step_task_legacy,2022.2.4,Win32,60.89763108,21,learning,0,resources/alien2_norm.png,0.735188606,resources/alien1_norm.png,0.325553926,TRUE,TRUE,3,0.099393778,red,m,0.0187,alien2,TRUE,2,0.66170527,77,1,0.735188606,x,0.36,0,123,123,123,1,0.325553926,0.735188606,0.414123906,0.707920788,TRUE,,,,,,,,,,,,,,,,,,,,,,,,,,,,,,,,,
330418,2023-11-03_17h16.17.951,two_step_task_legacy,2022.2.4,Win32,60.89763108,21,learning,1,resources/alien3_norm.png,0.358787311,resources/alien4_norm.png,0.719523144,TRUE,TRUE,2,0.955528649,purple,m,0.1341,alien4,TRUE,3,0.811716505,77,0,0.719523144,m,0.3766,0,124,124,124,1,0.332284924,0.728011457,0.358787311,0.719523144,FALSE,,,,,,,,,,,,,,,,,,,,,,,,,,,,,,,,,
330418,2023-11-03_17h16.17.951,two_step_task_legacy,2022.2.4,Win32,60.89763108,21,learning,0,resources/alien4_norm.png,0.736399527,resources/alien3_norm.png,0.400002364,TRUE,TRUE,2,0.013826993,purple,x,0.3047,alien3,TRUE,3,0.577170297,77,0,0.400002364,m,0.3752,0,125,125,125,1,0.326093405,0.695840729,0.400002364,0.736399527,TRUE,,,,,,,,,,,,,,,,,,,,,,,,,,,,,,,,,
330418,2023-11-03_17h16.17.951,two_step_task_legacy,2022.2.4,Win32,60.89763108,21,learning,0,resources/alien2_norm.png,0.660568372,resources/alien1_norm.png,0.323930204,TRUE,TRUE,3,0.135925376,red,m,0.351,alien1,TRUE,3,0.725546483,77,0,0.323930204,m,0.2708,0,126,126,126,1,0.323930204,0.660568372,0.427141787,0.734764761,TRUE,,,,,,,,,,,,,,,,,,,,,,,,,,,,,,,,,
330418,2023-11-03_17h16.17.951,two_step_task_legacy,2022.2.4,Win32,60.89763108,21,learning,0,resources/alien1_norm.png,0.340229983,resources/alien2_norm.png,0.647692248,TRUE,TRUE,3,0.432543035,red,m,0.2836,alien2,TRUE,3,0.694687379,77,0,0.647692248,m,0.4527,0,127,127,127,1,0.340229983,0.647692248,0.427069701,0.72143708,FALSE,,,,,,,,,,,,,,,,,,,,,,,,,,,,,,,,,
330418,2023-11-03_17h16.17.951,two_step_task_legacy,2022.2.4,Win32,60.89763108,21,learning,0,resources/alien2_norm.png,0.630816083,resources/alien1_norm.png,0.338813549,TRUE,TRUE,3,0.220425862,red,m,0.1385,alien2,TRUE,3,0.915928768,77,0,0.630816083,x,0.3666,0,128,128,128,1,0.338813549,0.630816083,0.40499619,0.744385778,TRUE,,,,,,,,,,,,,,,,,,,,,,,,,,,,,,,,,
330418,2023-11-03_17h16.17.951,two_step_task_legacy,2022.2.4,Win32,60.89763108,21,learning,0,resources/alien1_norm.png,0.336434737,resources/alien2_norm.png,0.661989018,TRUE,TRUE,3,0.161326406,red,m,0.2444,alien2,TRUE,2,0.47046992,78,1,0.661989018,m,0.4175,0,129,129,129,1,0.336434737,0.661989018,0.444389232,0.724357321,FALSE,,,,,,,,,,,,,,,,,,,,,,,,,,,,,,,,,
330418,2023-11-03_17h16.17.951,two_step_task_legacy,2022.2.4,Win32,60.89763108,21,learning,1,resources/alien3_norm.png,0.428715926,resources/alien4_norm.png,0.730204744,TRUE,TRUE,2,0.922791331,purple,m,0.234,alien4,TRUE,2,0.133697476,79,1,0.730204744,m,0.6113,0,130,130,130,1,0.290559274,0.672971781,0.428715926,0.730204744,FALSE,,,,,,,,,,,,,,,,,,,,,,,,,,,,,,,,,
330418,2023-11-03_17h16.17.951,two_step_task_legacy,2022.2.4,Win32,60.89763108,21,learning,0,resources/alien1_norm.png,0.316122369,resources/alien2_norm.png,0.620277314,TRUE,TRUE,3,0.128313057,red,m,0.197,alien1,TRUE,3,0.902465212,79,0,0.316122369,x,0.6493,0,131,131,131,1,0.316122369,0.620277314,0.426712563,0.736924708,FALSE,,,,,,,,,,,,,,,,,,,,,,,,,,,,,,,,,
330418,2023-11-03_17h16.17.951,two_step_task_legacy,2022.2.4,Win32,60.89763108,21,learning,0,resources/alien3_norm.png,0.428806971,resources/alien4_norm.png,0.745455893,TRUE,TRUE,2,0.018453212,purple,x,0.2841,alien3,TRUE,3,0.969289196,79,0,0.428806971,x,0.299,0,132,132,132,1,0.351537647,0.634556363,0.428806971,0.745455893,FALSE,,,,,,,,,,,,,,,,,,,,,,,,,,,,,,,,,
330418,2023-11-03_17h16.17.951,two_step_task_legacy,2022.2.4,Win32,60.89763108,21,learning,1,resources/alien2_norm.png,0.630455363,resources/alien1_norm.png,0.36337083,TRUE,TRUE,3,0.840701124,red,x,0.0781,alien1,TRUE,3,0.873902075,79,0,0.36337083,m,0.3498,0,133,133,133,1,0.36337083,0.630455363,0.393697106,0.746235282,TRUE,,,,,,,,,,,,,,,,,,,,,,,,,,,,,,,,,
330418,2023-11-03_17h16.17.951,two_step_task_legacy,2022.2.4,Win32,60.89763108,21,learning,1,resources/alien2_norm.png,0.629464294,resources/alien1_norm.png,0.391533394,TRUE,TRUE,3,0.744033183,red,x,0.0006,alien2,TRUE,2,0.210230866,80,1,0.629464294,x,0.2062,0,134,134,134,1,0.391533394,0.629464294,0.40193756,0.744542488,TRUE,,,,,,,,,,,,,,,,,,,,,,,,,,,,,,,,,
330418,2023-11-03_17h16.17.951,two_step_task_legacy,2022.2.4,Win32,60.89763108,21,learning,0,resources/alien1_norm.png,0.369719776,resources/alien2_norm.png,0.638245617,TRUE,TRUE,3,0.157936411,red,m,0.2006,alien2,TRUE,2,0.288225094,81,1,0.638245617,m,0.3341,0,135,135,135,1,0.369719776,0.638245617,0.393998803,0.715176093,FALSE,,,,,,,,,,,,,,,,,,,,,,,,,,,,,,,,,
330418,2023-11-03_17h16.17.951,two_step_task_legacy,2022.2.4,Win32,60.89763108,21,learning,0,resources/alien2_norm.png,0.649511756,resources/alien1_norm.png,0.366198559,TRUE,TRUE,3,0.626692028,red,m,0.1278,alien1,TRUE,3,0.696163935,81,0,0.366198559,m,0.2602,0,136,136,136,1,0.366198559,0.649511756,0.413754202,0.707095008,TRUE,,,,,,,,,,,,,,,,,,,,,,,,,,,,,,,,,
330418,2023-11-03_17h16.17.951,two_step_task_legacy,2022.2.4,Win32,60.89763108,21,learning,1,resources/alien3_norm.png,0.397718097,resources/alien4_norm.png,0.712484856,TRUE,TRUE,2,0.701303438,purple,m,0.2764,alien4,TRUE,2,0.528041664,82,1,0.712484856,m,1.0444,0,137,137,137,1,0.382888211,0.652072629,0.397718097,0.712484856,FALSE,,,,,,,,,,,,,,,,,,,,,,,,,,,,,,,,,
330418,2023-11-03_17h16.17.951,two_step_task_legacy,2022.2.4,Win32,60.89763108,21,learning,1,resources/alien1_norm.png,0.343581066,resources/alien2_norm.png,0.668249043,TRUE,TRUE,3,0.993489718,red,x,0.4177,alien1,TRUE,3,0.733375282,82,0,0.343581066,x,0.3553,0,138,138,138,1,0.343581066,0.668249043,0.403132479,0.693717942,FALSE,,,,,,,,,,,,,,,,,,,,,,,,,,,,,,,,,
330418,2023-11-03_17h16.17.951,two_step_task_legacy,2022.2.4,Win32,60.89763108,21,learning,1,resources/alien2_norm.png,0.672524194,resources/alien1_norm.png,0.363838317,TRUE,TRUE,3,0.890093881,red,x,0.4711,alien1,TRUE,2,0.205957583,83,1,0.363838317,m,1.0797,0,139,139,139,1,0.363838317,0.672524194,0.435461559,0.688514127,TRUE,,,,,,,,,,,,,,,,,,,,,,,,,,,,,,,,,
330418,2023-11-03_17h16.17.951,two_step_task_legacy,2022.2.4,Win32,60.89763108,21,learning,0,resources/alien2_norm.png,0.710972025,resources/alien1_norm.png,0.379344852,TRUE,TRUE,3,0.445190269,red,m,0.2341,alien1,TRUE,2,0.262566093,84,1,0.379344852,m,0.6175,0,140,140,140,1,0.379344852,0.710972025,0.439845091,0.693632034,TRUE,,,,,,,,,,,,,,,,,,,,,,,,,,,,,,,,,
330418,2023-11-03_17h16.17.951,two_step_task_legacy,2022.2.4,Win32,60.89763108,21,learning,0,resources/alien3_norm.png,0.431317014,resources/alien4_norm.png,0.69214813,TRUE,TRUE,2,0.676214293,purple,x,0.1267,alien3,TRUE,2,0.334330169,85,1,0.431317014,x,1.3418,0,141,141,141,1,0.373374152,0.729873496,0.431317014,0.69214813,FALSE,,,,,,,,,,,,,,,,,,,,,,,,,,,,,,,,,
330418,2023-11-03_17h16.17.951,two_step_task_legacy,2022.2.4,Win32,60.89763108,21,learning,0,resources/alien1_norm.png,0.390669051,resources/alien2_norm.png,0.716383606,TRUE,TRUE,3,0.274144977,red,m,0.4622,alien2,TRUE,3,0.815686794,85,0,0.716383606,m,0.9089,0,142,142,142,1,0.390669051,0.716383606,0.452030427,0.674123188,FALSE,,,,,,,,,,,,,,,,,,,,,,,,,,,,,,,,,
330418,2023-11-03_17h16.17.951,two_step_task_legacy,2022.2.4,Win32,60.89763108,21,learning,0,resources/alien2_norm.png,0.744969912,resources/alien1_norm.png,0.339477736,TRUE,TRUE,3,0.366839742,red,m,0.3481,alien2,TRUE,3,0.75044564,85,0,0.744969912,x,0.5405,0,143,143,143,1,0.339477736,0.744969912,0.442360919,0.639333921,TRUE,,,,,,,,,,,,,,,,,,,,,,,,,,,,,,,,,
330418,2023-11-03_17h16.17.951,two_step_task_legacy,2022.2.4,Win32,60.89763108,21,learning,1,resources/alien1_norm.png,0.317803938,resources/alien2_norm.png,0.710844956,TRUE,TRUE,3,0.922870451,red,x,0.2238,alien1,TRUE,3,0.757721892,85,0,0.317803938,x,0.3025,0,144,144,144,1,0.317803938,0.710844956,0.42051828,0.612593584,FALSE,,,,,,,,,,,,,,,,,,,,,,,,,,,,,,,,,
330418,2023-11-03_17h16.17.951,two_step_task_legacy,2022.2.4,Win32,60.89763108,21,learning,1,resources/alien1_norm.png,0.311104109,resources/alien2_norm.png,0.746481624,TRUE,TRUE,3,0.791278112,red,x,0.1663,alien1,TRUE,3,0.425666619,85,0,0.311104109,x,0.0662,0,145,145,145,1,0.311104109,0.746481624,0.446044137,0.635215037,FALSE,,,,,,,,,,,,,,,,,,,,,,,,,,,,,,,,,
330418,2023-11-03_17h16.17.951,two_step_task_legacy,2022.2.4,Win32,60.89763108,21,learning,0,resources/alien3_norm.png,0.457400821,resources/alien4_norm.png,0.626838599,TRUE,TRUE,2,0.026909545,purple,x,0.2224,alien3,TRUE,3,0.793327407,85,0,0.457400821,x,0.0497,0,146,146,146,1,0.322435636,0.748817246,0.457400821,0.626838599,FALSE,,,,,,,,,,,,,,,,,,,,,,,,,,,,,,,,,
330418,2023-11-03_17h16.17.951,two_step_task_legacy,2022.2.4,Win32,60.89763108,21,learning,0,resources/alien4_norm.png,0.604796627,resources/alien3_norm.png,0.444423405,TRUE,TRUE,2,0.579070729,purple,x,0.123,alien4,TRUE,2,0.238608287,86,1,0.604796627,x,0.0005,0,147,147,147,1,0.311003061,0.708845948,0.444423405,0.604796627,TRUE,,,,,,,,,,,,,,,,,,,,,,,,,,,,,,,,,
330418,2023-11-03_17h16.17.951,two_step_task_legacy,2022.2.4,Win32,60.89763108,21,learning,1,resources/alien2_norm.png,0.709213445,resources/alien1_norm.png,0.323921279,TRUE,TRUE,3,0.831474005,red,x,0.0486,alien2,TRUE,3,0.789874332,86,0,0.709213445,x,0.3829,0,148,148,148,1,0.323921279,0.709213445,0.466381219,0.575008043,TRUE,,,,,,,,,,,,,,,,,,,,,,,,,,,,,,,,,
330418,2023-11-03_17h16.17.951,two_step_task_legacy,2022.2.4,Win32,60.89763108,21,learning,1,resources/alien2_norm.png,0.703134316,resources/alien1_norm.png,0.320184667,TRUE,TRUE,3,0.810084798,red,x,0.1231,alien2,TRUE,2,0.091950068,87,1,0.703134316,x,0.0152,0,149,149,149,1,0.320184667,0.703134316,0.42955844,0.581290383,TRUE,,,,,,,,,,,,,,,,,,,,,,,,,,,,,,,,,
330418,2023-11-03_17h16.17.951,two_step_task_legacy,2022.2.4,Win32,60.89763108,21,learning,1,resources/alien2_norm.png,0.7,resources/alien1_norm.png,0.3,TRUE,TRUE,3,0.835015303,red,x,0.1017,alien2,TRUE,3,0.761139393,87,0,0.7,x,0.1265,0,150,150,150,1,0.3,0.7,0.4,0.6,TRUE,,,,,,,,,,,,,,,,,,,,,,,,,,,,,,,,,
330418,2023-11-03_17h16.17.951,two_step_task_legacy,2022.2.4,Win32,60.89763108,21,learning,1,resources/alien4_norm.png,0.6,resources/alien3_norm.png,0.4,TRUE,TRUE,2,0.766949275,purple,m,0.2069,alien3,TRUE,3,0.477936207,87,0,0.4,m,0.1663,0,151,151,151,1,0.3,0.7,0.4,0.6,TRUE,,,,,,,,,,,,,,,,,,,,,,,,,,,,,,,,,
330418,2023-11-03_17h16.17.951,two_step_task_legacy,2022.2.4,Win32,60.89763108,21,learning,0,resources/alien2_norm.png,0.7,resources/alien1_norm.png,0.3,TRUE,TRUE,3,0.108034092,red,m,0.234,alien1,TRUE,2,0.009509252,88,1,0.3,m,0.2158,0,152,152,152,1,0.3,0.7,0.4,0.6,TRUE,,,,,,,,,,,,,,,,,,,,,,,,,,,,,,,,,
330418,2023-11-03_17h16.17.951,two_step_task_legacy,2022.2.4,Win32,60.89763108,21,learning,0,resources/alien2_norm.png,0.7,resources/alien1_norm.png,0.3,TRUE,TRUE,3,0.180672195,red,m,0.0174,alien1,TRUE,2,0.233137261,89,1,0.3,m,0.1005,0,153,153,153,1,0.3,0.7,0.4,0.6,TRUE,,,,,,,,,,,,,,,,,,,,,,,,,,,,,,,,,
330418,2023-11-03_17h16.17.951,two_step_task_legacy,2022.2.4,Win32,60.89763108,21,learning,0,resources/alien2_norm.png,0.7,resources/alien1_norm.png,0.3,TRUE,TRUE,3,0.612113301,red,m,0.2006,alien1,TRUE,3,0.667107827,89,0,0.3,m,0.5545,0,154,154,154,1,0.3,0.7,0.4,0.6,TRUE,,,,,,,,,,,,,,,,,,,,,,,,,,,,,,,,,
330418,2023-11-03_17h16.17.951,two_step_task_legacy,2022.2.4,Win32,60.89763108,21,learning,1,resources/alien3_norm.png,0.4,resources/alien4_norm.png,0.6,TRUE,TRUE,2,0.817223299,purple,m,0.195,alien4,TRUE,2,0.414729365,90,1,0.6,m,0.1587,0,155,155,155,1,0.3,0.7,0.4,0.6,FALSE,,,,,,,,,,,,,,,,,,,,,,,,,,,,,,,,,
330418,2023-11-03_17h16.17.951,two_step_task_legacy,2022.2.4,Win32,60.89763108,21,learning,0,resources/alien1_norm.png,0.3,resources/alien2_norm.png,0.7,TRUE,TRUE,3,0.134512734,red,m,0.6542,alien2,TRUE,3,0.784771383,90,0,0.7,m,0.0161,0,156,156,156,1,0.3,0.7,0.4,0.6,FALSE,,,,,,,,,,,,,,,,,,,,,,,,,,,,,,,,,
330418,2023-11-03_17h16.17.951,two_step_task_legacy,2022.2.4,Win32,60.89763108,21,learning,0,resources/alien1_norm.png,0.3,resources/alien2_norm.png,0.7,TRUE,TRUE,3,0.181253644,red,m,0.0839,alien2,TRUE,2,0.147193284,91,1,0.7,m,0.0677,0,157,157,157,1,0.3,0.7,0.4,0.6,FALSE,,,,,,,,,,,,,,,,,,,,,,,,,,,,,,,,,
330418,2023-11-03_17h16.17.951,two_step_task_legacy,2022.2.4,Win32,60.89763108,21,learning,1,resources/alien4_norm.png,0.6,resources/alien3_norm.png,0.4,TRUE,TRUE,2,0.711341589,purple,m,0.1944,alien3,TRUE,3,0.517715465,91,0,0.4,m,0.1285,0,158,158,158,1,0.3,0.7,0.4,0.6,TRUE,,,,,,,,,,,,,,,,,,,,,,,,,,,,,,,,,
330418,2023-11-03_17h16.17.951,two_step_task_legacy,2022.2.4,Win32,60.89763108,21,learning,0,resources/alien1_norm.png,0.3,resources/alien2_norm.png,0.7,TRUE,TRUE,3,0.35063379,red,m,0.067,alien2,TRUE,2,0.101312575,92,1,0.7,m,0.1325,0,159,159,159,1,0.3,0.7,0.4,0.6,FALSE,,,,,,,,,,,,,,,,,,,,,,,,,,,,,,,,,
330418,2023-11-03_17h16.17.951,two_step_task_legacy,2022.2.4,Win32,60.89763108,21,learning,0,resources/alien2_norm.png,0.7,resources/alien1_norm.png,0.3,TRUE,TRUE,3,0.011147279,red,m,0.1977,alien1,TRUE,3,0.513438176,92,0,0.3,m,0.7168,0,160,160,160,1,0.3,0.7,0.4,0.6,TRUE,,,,,,,,,,,,,,,,,,,,,,,,,,,,,,,,,
330418,2023-11-03_17h16.17.951,two_step_task_legacy,2022.2.4,Win32,60.89763108,21,learning,1,resources/alien3_norm.png,0.4,resources/alien4_norm.png,0.6,TRUE,TRUE,2,0.759791048,purple,m,0.0097,alien4,TRUE,2,0.020701798,93,1,0.6,m,0.3828,0,161,161,161,1,0.3,0.7,0.4,0.6,FALSE,,,,,,,,,,,,,,,,,,,,,,,,,,,,,,,,,
330418,2023-11-03_17h16.17.951,two_step_task_legacy,2022.2.4,Win32,60.89763108,21,learning,0,resources/alien2_norm.png,0.7,resources/alien1_norm.png,0.3,TRUE,TRUE,3,0.244957563,red,m,0.2369,alien1,TRUE,2,0.001992492,94,1,0.3,m,0.233,0,162,162,162,1,0.3,0.7,0.4,0.6,TRUE,,,,,,,,,,,,,,,,,,,,,,,,,,,,,,,,,
330418,2023-11-03_17h16.17.951,two_step_task_legacy,2022.2.4,Win32,60.89763108,21,learning,0,resources/alien2_norm.png,0.7,resources/alien1_norm.png,0.3,TRUE,TRUE,3,0.688945241,red,m,0.3031,alien1,TRUE,3,0.915212912,94,0,0.3,m,0.1681,0,163,163,163,1,0.3,0.7,0.4,0.6,TRUE,,,,,,,,,,,,,,,,,,,,,,,,,,,,,,,,,
330418,2023-11-03_17h16.17.951,two_step_task_legacy,2022.2.4,Win32,60.89763108,21,learning,0,resources/alien1_norm.png,0.3,resources/alien2_norm.png,0.7,TRUE,TRUE,3,0.377889541,red,m,0.3623,alien2,TRUE,2,0.410572277,95,1,0.7,m,0.0338,0,164,164,164,1,0.3,0.7,0.4,0.6,FALSE,,,,,,,,,,,,,,,,,,,,,,,,,,,,,,,,,
330418,2023-11-03_17h16.17.951,two_step_task_legacy,2022.2.4,Win32,60.89763108,21,learning,1,resources/alien3_norm.png,0.4,resources/alien4_norm.png,0.6,TRUE,TRUE,2,0.703791826,purple,m,0.205,alien4,TRUE,3,0.925479674,95,0,0.6,m,0.4468,0,165,165,165,1,0.3,0.7,0.4,0.6,FALSE,,,,,,,,,,,,,,,,,,,,,,,,,,,,,,,,,
330418,2023-11-03_17h16.17.951,two_step_task_legacy,2022.2.4,Win32,60.89763108,21,learning,0,resources/alien2_norm.png,0.7,resources/alien1_norm.png,0.3,TRUE,TRUE,3,0.010688585,red,m,0.5549,alien1,TRUE,3,0.917487743,95,0,0.3,m,0.4925,0,166,166,166,1,0.3,0.7,0.4,0.6,TRUE,,,,,,,,,,,,,,,,,,,,,,,,,,,,,,,,,
330418,2023-11-03_17h16.17.951,two_step_task_legacy,2022.2.4,Win32,60.89763108,21,learning,0,resources/alien1_norm.png,0.3,resources/alien2_norm.png,0.7,TRUE,TRUE,3,0.248508792,red,m,0.14,alien2,TRUE,3,0.725271395,95,0,0.7,m,0.101,0,167,167,167,1,0.3,0.7,0.4,0.6,FALSE,,,,,,,,,,,,,,,,,,,,,,,,,,,,,,,,,
330418,2023-11-03_17h16.17.951,two_step_task_legacy,2022.2.4,Win32,60.89763108,21,learning,0,resources/alien2_norm.png,0.7,resources/alien1_norm.png,0.3,TRUE,TRUE,3,0.689504172,red,m,0.1442,alien1,TRUE,3,0.901220195,95,0,0.3,m,0.0006,0,168,168,168,1,0.3,0.7,0.4,0.6,TRUE,,,,,,,,,,,,,,,,,,,,,,,,,,,,,,,,,
330418,2023-11-03_17h16.17.951,two_step_task_legacy,2022.2.4,Win32,60.89763108,21,learning,0,resources/alien2_norm.png,0.7,resources/alien1_norm.png,0.3,TRUE,TRUE,3,0.062745961,red,m,0.4538,alien1,TRUE,3,0.46464783,95,0,0.3,m,0.2157,0,169,169,169,1,0.3,0.7,0.4,0.6,TRUE,,,,,,,,,,,,,,,,,,,,,,,,,,,,,,,,,
330418,2023-11-03_17h16.17.951,two_step_task_legacy,2022.2.4,Win32,60.89763108,21,learning,0,resources/alien2_norm.png,0.7,resources/alien1_norm.png,0.3,TRUE,TRUE,3,0.069026526,red,m,0.0609,alien1,TRUE,3,0.562113393,95,0,0.3,m,0.084,0,170,170,170,1,0.3,0.7,0.4,0.6,TRUE,,,,,,,,,,,,,,,,,,,,,,,,,,,,,,,,,
330418,2023-11-03_17h16.17.951,two_step_task_legacy,2022.2.4,Win32,60.89763108,21,learning,0,resources/alien1_norm.png,0.3,resources/alien2_norm.png,0.7,TRUE,TRUE,3,0.52303995,red,m,0.0495,alien2,TRUE,2,0.34440557,96,1,0.7,m,0.1371,0,171,171,171,1,0.3,0.7,0.4,0.6,FALSE,,,,,,,,,,,,,,,,,,,,,,,,,,,,,,,,,
330418,2023-11-03_17h16.17.951,two_step_task_legacy,2022.2.4,Win32,60.89763108,21,learning,1,resources/alien3_norm.png,0.4,resources/alien4_norm.png,0.6,TRUE,TRUE,2,0.901449708,purple,m,0.1507,alien4,TRUE,2,0.306108587,97,1,0.6,m,0.1388,0,172,172,172,1,0.3,0.7,0.4,0.6,FALSE,,,,,,,,,,,,,,,,,,,,,,,,,,,,,,,,,
330418,2023-11-03_17h16.17.951,two_step_task_legacy,2022.2.4,Win32,60.89763108,21,learning,0,resources/alien2_norm.png,0.7,resources/alien1_norm.png,0.3,TRUE,TRUE,3,0.480867961,red,m,0.0005,alien1,TRUE,3,0.742740458,97,0,0.3,m,0.1664,0,173,173,173,1,0.3,0.7,0.4,0.6,TRUE,,,,,,,,,,,,,,,,,,,,,,,,,,,,,,,,,
330418,2023-11-03_17h16.17.951,two_step_task_legacy,2022.2.4,Win32,60.89763108,21,learning,1,resources/alien3_norm.png,0.4,resources/alien4_norm.png,0.6,TRUE,TRUE,2,0.984118133,purple,m,0.0005,alien4,TRUE,3,0.946045842,97,0,0.6,m,0.1329,0,174,174,174,1,0.3,0.7,0.4,0.6,FALSE,,,,,,,,,,,,,,,,,,,,,,,,,,,,,,,,,
330418,2023-11-03_17h16.17.951,two_step_task_legacy,2022.2.4,Win32,60.89763108,21,learning,0,resources/alien1_norm.png,0.3,resources/alien2_norm.png,0.7,TRUE,TRUE,3,0.40260642,red,m,0.1999,alien2,TRUE,3,0.898711616,97,0,0.7,m,0.2571,0,175,175,175,1,0.3,0.7,0.4,0.6,FALSE,,,,,,,,,,,,,,,,,,,,,,,,,,,,,,,,,
330418,2023-11-03_17h16.17.951,two_step_task_legacy,2022.2.4,Win32,60.89763108,21,learning,0,resources/alien1_norm.png,0.3,resources/alien2_norm.png,0.7,TRUE,TRUE,3,0.537235979,red,m,0.4925,alien2,TRUE,3,0.749207236,97,0,0.7,m,0.1744,0,176,176,176,1,0.3,0.7,0.4,0.6,FALSE,,,,,,,,,,,,,,,,,,,,,,,,,,,,,,,,,
330418,2023-11-03_17h16.17.951,two_step_task_legacy,2022.2.4,Win32,60.89763108,21,learning,0,resources/alien2_norm.png,0.7,resources/alien1_norm.png,0.3,TRUE,TRUE,3,0.295653879,red,m,0.0997,alien1,TRUE,3,0.698979053,97,0,0.3,m,1.0626,0,177,177,177,1,0.3,0.7,0.4,0.6,TRUE,,,,,,,,,,,,,,,,,,,,,,,,,,,,,,,,,
330418,2023-11-03_17h16.17.951,two_step_task_legacy,2022.2.4,Win32,60.89763108,21,learning,0,resources/alien1_norm.png,0.3,resources/alien2_norm.png,0.7,TRUE,TRUE,3,0.278543322,red,m,0.3014,alien2,TRUE,2,0.452169481,98,1,0.7,m,0.0589,0,178,178,178,1,0.3,0.7,0.4,0.6,FALSE,,,,,,,,,,,,,,,,,,,,,,,,,,,,,,,,,
330418,2023-11-03_17h16.17.951,two_step_task_legacy,2022.2.4,Win32,60.89763108,21,learning,0,resources/alien2_norm.png,0.7,resources/alien1_norm.png,0.3,TRUE,TRUE,3,0.590242343,red,m,0.2205,alien1,TRUE,3,0.797782559,98,0,0.3,m,0.1163,0,179,179,179,1,0.3,0.7,0.4,0.6,TRUE,,,,,,,,,,,,,,,,,,,,,,,,,,,,,,,,,
330418,2023-11-03_17h16.17.951,two_step_task_legacy,2022.2.4,Win32,60.89763108,21,learning,0,resources/alien1_norm.png,0.3,resources/alien2_norm.png,0.7,TRUE,TRUE,3,0.578094814,red,m,0.2401,alien2,TRUE,2,0.48293175,99,1,0.7,m,0.2673,0,180,180,180,1,0.3,0.7,0.4,0.6,FALSE,,,,,,,,,,,,,,,,,,,,,,,,,,,,,,,,,
330418,2023-11-03_17h16.17.951,two_step_task_legacy,2022.2.4,Win32,60.89763108,21,learning,0,resources/alien2_norm.png,0.7,resources/alien1_norm.png,0.3,TRUE,TRUE,3,0.061485041,red,m,0.2447,alien1,TRUE,3,0.405360946,99,0,0.3,m,0.0602,0,181,181,181,1,0.3,0.7,0.4,0.6,TRUE,,,,,,,,,,,,,,,,,,,,,,,,,,,,,,,,,
330418,2023-11-03_17h16.17.951,two_step_task_legacy,2022.2.4,Win32,60.89763108,21,learning,0,resources/alien2_norm.png,0.7,resources/alien1_norm.png,0.3,TRUE,TRUE,3,0.21230702,red,m,0.0329,alien1,TRUE,2,0.068853289,100,1,0.3,m,0.2326,0,182,182,182,1,0.3,0.7,0.4,0.6,TRUE,,,,,,,,,,,,,,,,,,,,,,,,,,,,,,,,,
330418,2023-11-03_17h16.17.951,two_step_task_legacy,2022.2.4,Win32,60.89763108,21,learning,0,resources/alien1_norm.png,0.3,resources/alien2_norm.png,0.7,TRUE,TRUE,3,0.421395218,red,m,0.0006,alien2,TRUE,2,0.595649586,101,1,0.7,m,0.1504,0,183,183,183,1,0.3,0.7,0.4,0.6,FALSE,,,,,,,,,,,,,,,,,,,,,,,,,,,,,,,,,
330418,2023-11-03_17h16.17.951,two_step_task_legacy,2022.2.4,Win32,60.89763108,21,learning,0,resources/alien1_norm.png,0.3,resources/alien2_norm.png,0.7,TRUE,TRUE,3,0.1677625,red,m,0.1964,alien2,TRUE,2,0.011611901,102,1,0.7,m,0.1342,0,184,184,184,1,0.3,0.7,0.4,0.6,FALSE,,,,,,,,,,,,,,,,,,,,,,,,,,,,,,,,,
330418,2023-11-03_17h16.17.951,two_step_task_legacy,2022.2.4,Win32,60.89763108,21,learning,1,resources/alien4_norm.png,0.6,resources/alien3_norm.png,0.4,TRUE,TRUE,2,0.889448857,purple,m,0.0505,alien3,TRUE,3,0.659389053,102,0,0.4,m,0.178,0,185,185,185,1,0.3,0.7,0.4,0.6,TRUE,,,,,,,,,,,,,,,,,,,,,,,,,,,,,,,,,
330418,2023-11-03_17h16.17.951,two_step_task_legacy,2022.2.4,Win32,60.89763108,21,learning,0,resources/alien2_norm.png,0.7,resources/alien1_norm.png,0.3,TRUE,TRUE,3,0.408756392,red,m,0.133,alien1,TRUE,3,0.76973367,102,0,0.3,m,0.0006,0,186,186,186,1,0.3,0.7,0.4,0.6,TRUE,,,,,,,,,,,,,,,,,,,,,,,,,,,,,,,,,
330418,2023-11-03_17h16.17.951,two_step_task_legacy,2022.2.4,Win32,60.89763108,21,learning,1,resources/alien3_norm.png,0.4,resources/alien4_norm.png,0.6,TRUE,TRUE,2,0.721667776,purple,m,0.8301,alien4,TRUE,2,0.314611814,103,1,0.6,m,0.2706,0,187,187,187,1,0.3,0.7,0.4,0.6,FALSE,,,,,,,,,,,,,,,,,,,,,,,,,,,,,,,,,
330418,2023-11-03_17h16.17.951,two_step_task_legacy,2022.2.4,Win32,60.89763108,21,learning,0,resources/alien1_norm.png,0.3,resources/alien2_norm.png,0.7,TRUE,TRUE,3,0.406520188,red,m,0.2012,alien2,TRUE,2,0.674762795,104,1,0.7,m,0.0473,0,188,188,188,1,0.3,0.7,0.4,0.6,FALSE,,,,,,,,,,,,,,,,,,,,,,,,,,,,,,,,,
330418,2023-11-03_17h16.17.951,two_step_task_legacy,2022.2.4,Win32,60.89763108,21,learning,1,resources/alien3_norm.png,0.4,resources/alien4_norm.png,0.6,TRUE,TRUE,2,0.988429692,purple,m,0.0009,alien4,TRUE,3,0.929052917,104,0,0.6,m,0.0159,0,189,189,189,1,0.3,0.7,0.4,0.6,FALSE,,,,,,,,,,,,,,,,,,,,,,,,,,,,,,,,,
330418,2023-11-03_17h16.17.951,two_step_task_legacy,2022.2.4,Win32,60.89763108,21,learning,1,resources/alien4_norm.png,0.6,resources/alien3_norm.png,0.4,TRUE,TRUE,2,0.727948626,purple,m,0.2166,alien3,TRUE,2,0.016731778,105,1,0.4,m,0.2718,0,190,190,190,1,0.3,0.7,0.4,0.6,TRUE,,,,,,,,,,,,,,,,,,,,,,,,,,,,,,,,,
330418,2023-11-03_17h16.17.951,two_step_task_legacy,2022.2.4,Win32,60.89763108,21,learning,0,resources/alien2_norm.png,0.7,resources/alien1_norm.png,0.3,TRUE,TRUE,3,0.68527592,red,m,0.3063,alien1,TRUE,3,0.926181554,105,0,0.3,m,0.016,0,191,191,191,1,0.3,0.7,0.4,0.6,TRUE,,,,,,,,,,,,,,,,,,,,,,,,,,,,,,,,,
330418,2023-11-03_17h16.17.951,two_step_task_legacy,2022.2.4,Win32,60.89763108,21,learning,0,resources/alien2_norm.png,0.7,resources/alien1_norm.png,0.3,TRUE,TRUE,3,0.011165054,red,m,0.084,alien1,TRUE,3,0.699486895,105,0,0.3,m,0.1184,0,192,192,192,1,0.3,0.7,0.4,0.6,TRUE,,,,,,,,,,,,,,,,,,,,,,,,,,,,,,,,,
330418,2023-11-03_17h16.17.951,two_step_task_legacy,2022.2.4,Win32,60.89763108,21,learning,0,resources/alien2_norm.png,0.7,resources/alien1_norm.png,0.3,TRUE,TRUE,3,0.259354586,red,m,0.1664,alien1,TRUE,3,0.937097683,105,0,0.3,m,0.5174,0,193,193,193,1,0.3,0.7,0.4,0.6,TRUE,,,,,,,,,,,,,,,,,,,,,,,,,,,,,,,,,
330418,2023-11-03_17h16.17.951,two_step_task_legacy,2022.2.4,Win32,60.89763108,21,learning,0,resources/alien4_norm.png,0.6,resources/alien3_norm.png,0.4,TRUE,TRUE,2,0.301066622,purple,x,0.2475,alien4,TRUE,3,0.860336124,105,0,0.6,x,0.0898,0,194,194,194,1,0.3,0.7,0.4,0.6,TRUE,,,,,,,,,,,,,,,,,,,,,,,,,,,,,,,,,
330418,2023-11-03_17h16.17.951,two_step_task_legacy,2022.2.4,Win32,60.89763108,21,learning,0,resources/alien3_norm.png,0.4,resources/alien4_norm.png,0.6,TRUE,TRUE,2,0.388870948,purple,x,0.1007,alien3,TRUE,2,0.348042476,106,1,0.4,x,0.1793,0,195,195,195,1,0.3,0.7,0.4,0.6,FALSE,,,,,,,,,,,,,,,,,,,,,,,,,,,,,,,,,
330418,2023-11-03_17h16.17.951,two_step_task_legacy,2022.2.4,Win32,60.89763108,21,learning,0,resources/alien3_norm.png,0.4,resources/alien4_norm.png,0.6,TRUE,TRUE,2,0.273395955,purple,x,0.1331,alien3,TRUE,3,0.543392371,106,0,0.4,x,0.601,0,196,196,196,1,0.3,0.7,0.4,0.6,FALSE,,,,,,,,,,,,,,,,,,,,,,,,,,,,,,,,,
330418,2023-11-03_17h16.17.951,two_step_task_legacy,2022.2.4,Win32,60.89763108,21,learning,0,resources/alien3_norm.png,0.4,resources/alien4_norm.png,0.6,TRUE,TRUE,2,0.334978176,purple,x,0.1172,alien3,TRUE,3,0.661307748,106,0,0.4,x,0.2506,0,197,197,197,1,0.3,0.7,0.4,0.6,FALSE,,,,,,,,,,,,,,,,,,,,,,,,,,,,,,,,,
330418,2023-11-03_17h16.17.951,two_step_task_legacy,2022.2.4,Win32,60.89763108,21,learning,0,resources/alien4_norm.png,0.6,resources/alien3_norm.png,0.4,TRUE,TRUE,2,0.56292074,purple,x,0.5842,alien4,TRUE,2,0.462629594,107,1,0.6,x,0.1379,0,198,198,198,1,0.3,0.7,0.4,0.6,TRUE,,,,,,,,,,,,,,,,,,,,,,,,,,,,,,,,,
330418,2023-11-03_17h16.17.951,two_step_task_legacy,2022.2.4,Win32,60.89763108,21,learning,0,resources/alien4_norm.png,0.6,resources/alien3_norm.png,0.4,TRUE,TRUE,2,0.699198166,purple,x,0.2225,alien4,TRUE,2,0.038442588,108,1,0.6,x,0.1173,0,199,199,199,1,0.3,0.7,0.4,0.6,TRUE,,,,,,,,,,,,,,,,,,,,,,,,,,,,,,,,,
330418,2023-11-03_17h16.17.951,two_step_task_legacy,2022.2.4,Win32,60.89763108,21,learning,1,resources/alien2_norm.png,0.7,resources/alien1_norm.png,0.3,TRUE,TRUE,3,0.718085891,red,x,1.9411,alien2,TRUE,2,0.083572348,109,1,0.7,x,0.0831,0,200,200,200,1,0.3,0.7,0.4,0.6,TRUE,,,,,,,,,,,,,,,,,,,,,,,,,,,,,,,,,
330418,2023-11-03_17h16.17.951,two_step_task_legacy,2022.2.4,Win32,60.89763108,21,learning,1,resources/alien2_norm.png,0.7,resources/alien1_norm.png,0.3,TRUE,TRUE,3,0.737122788,red,x,0.0171,alien2,TRUE,2,0.381821845,110,1,0.7,x,0.075,0,201,201,201,1,0.3,0.7,0.4,0.6,TRUE,,,,,,,,,,,,,,,,,,,,,,,,,,,,,,,,,
330418,2023-11-03_17h16.17.951,two_step_task_legacy,2022.2.4,Win32,60.89763108,21,learning,0,resources/alien4_norm.png,0.6,resources/alien3_norm.png,0.4,TRUE,TRUE,2,0.330115025,purple,x,0.0127,alien4,TRUE,2,0.515625202,111,1,0.6,x,0.2527,0,202,202,202,1,0.3,0.7,0.4,0.6,TRUE,,,,,,,,,,,,,,,,,,,,,,,,,,,,,,,,,
330418,2023-11-03_17h16.17.951,two_step_task_legacy,2022.2.4,Win32,60.89763108,21,learning,0,resources/alien3_norm.png,0.4,resources/alien4_norm.png,0.6,TRUE,TRUE,2,0.40266272,purple,x,0.2005,alien3,TRUE,3,0.545485068,111,0,0.4,x,0.4676,0,203,203,203,1,0.3,0.7,0.4,0.6,FALSE,,,,,,,,,,,,,,,,,,,,,,,,,,,,,,,,,
330418,2023-11-03_17h16.17.951,two_step_task_legacy,2022.2.4,Win32,60.89763108,21,learning,0,resources/alien3_norm.png,0.4,resources/alien4_norm.png,0.6,TRUE,TRUE,2,0.03138827,purple,x,0.3011,alien3,TRUE,2,0.125312762,112,1,0.4,x,0.5676,0,204,204,204,1,0.3,0.7,0.4,0.6,FALSE,,,,,,,,,,,,,,,,,,,,,,,,,,,,,,,,,
330418,2023-11-03_17h16.17.951,two_step_task_legacy,2022.2.4,Win32,60.89763108,21,learning,0,resources/alien3_norm.png,0.4,resources/alien4_norm.png,0.6,TRUE,TRUE,2,0.304148125,purple,x,0.1337,alien3,TRUE,2,0.151832496,113,1,0.4,x,0.1227,0,205,205,205,1,0.3,0.7,0.4,0.6,FALSE,,,,,,,,,,,,,,,,,,,,,,,,,,,,,,,,,
330418,2023-11-03_17h16.17.951,two_step_task_legacy,2022.2.4,Win32,60.89763108,21,learning,0,resources/alien3_norm.png,0.4,resources/alien4_norm.png,0.6,TRUE,TRUE,2,0.071678457,purple,x,0.204,alien3,TRUE,3,0.440919908,113,0,0.4,x,0.169,0,206,206,206,1,0.3,0.7,0.4,0.6,FALSE,,,,,,,,,,,,,,,,,,,,,,,,,,,,,,,,,
330418,2023-11-03_17h16.17.951,two_step_task_legacy,2022.2.4,Win32,60.89763108,21,learning,0,resources/alien3_norm.png,0.4,resources/alien4_norm.png,0.6,TRUE,TRUE,2,0.376922013,purple,x,0.2238,alien3,TRUE,3,0.632518136,113,0,0.4,x,0.1727,0,207,207,207,1,0.3,0.7,0.4,0.6,FALSE,,,,,,,,,,,,,,,,,,,,,,,,,,,,,,,,,
330418,2023-11-03_17h16.17.951,two_step_task_legacy,2022.2.4,Win32,60.89763108,21,learning,1,resources/alien1_norm.png,0.3,resources/alien2_norm.png,0.7,TRUE,TRUE,3,0.90350129,red,x,1.4346,alien1,TRUE,2,0.239314375,114,1,0.3,x,0.266,0,208,208,208,1,0.3,0.7,0.4,0.6,FALSE,,,,,,,,,,,,,,,,,,,,,,,,,,,,,,,,,
330418,2023-11-03_17h16.17.951,two_step_task_legacy,2022.2.4,Win32,60.89763108,21,learning,1,resources/alien1_norm.png,0.3,resources/alien2_norm.png,0.7,TRUE,TRUE,3,0.829275019,red,x,0.1997,alien1,TRUE,3,0.907215477,114,0,0.3,x,0.6444,0,209,209,209,1,0.3,0.7,0.4,0.6,FALSE,,,,,,,,,,,,,,,,,,,,,,,,,,,,,,,,,
330418,2023-11-03_17h16.17.951,two_step_task_legacy,2022.2.4,Win32,60.89763108,21,learning,0,resources/alien3_norm.png,0.4,resources/alien4_norm.png,0.6,TRUE,TRUE,2,0.458769475,purple,x,0.1162,none,FALSE,NA,,114,0,0.3,,,0,210,210,210,1,0.3,0.7,0.4,0.6,FALSE,,,,,,,,,,,,,,,,,,,,,,,,,,,,,,,,,
330418,2023-11-03_17h16.17.951,two_step_task_legacy,2022.2.4,Win32,60.89763108,21,learning,0,resources/alien3_norm.png,0.4,resources/alien4_norm.png,0.6,TRUE,TRUE,2,0.008356169,purple,x,1.3089,alien3,TRUE,2,0.023550682,115,1,0.4,x,0.1006,0,211,211,211,1,0.3,0.7,0.4,0.6,FALSE,,,,,,,,,,,,,,,,,,,,,,,,,,,,,,,,,
330418,2023-11-03_17h16.17.951,two_step_task_legacy,2022.2.4,Win32,60.89763108,21,learning,0,resources/alien3_norm.png,0.4,resources/alien4_norm.png,0.6,TRUE,TRUE,2,0.276753338,purple,x,0.1675,alien3,TRUE,2,0.30488909,116,1,0.4,x,0.0673,0,212,212,212,1,0.3,0.7,0.4,0.6,FALSE,,,,,,,,,,,,,,,,,,,,,,,,,,,,,,,,,
330418,2023-11-03_17h16.17.951,two_step_task_legacy,2022.2.4,Win32,60.89763108,21,learning,0,resources/alien3_norm.png,0.4,resources/alien4_norm.png,0.6,TRUE,TRUE,2,0.511262362,purple,x,0.3564,alien3,TRUE,2,0.187828778,117,1,0.4,x,0.3088,0,213,213,213,1,0.3,0.7,0.4,0.6,FALSE,,,,,,,,,,,,,,,,,,,,,,,,,,,,,,,,,
330418,2023-11-03_17h16.17.951,two_step_task_legacy,2022.2.4,Win32,60.89763108,21,learning,0,resources/alien3_norm.png,0.4,resources/alien4_norm.png,0.6,TRUE,TRUE,2,0.151851008,purple,x,0.2008,alien3,TRUE,2,0.192494411,118,1,0.4,x,0.0345,0,214,214,214,1,0.3,0.7,0.4,0.6,FALSE,,,,,,,,,,,,,,,,,,,,,,,,,,,,,,,,,
330418,2023-11-03_17h16.17.951,two_step_task_legacy,2022.2.4,Win32,60.89763108,21,learning,0,resources/alien4_norm.png,0.6,resources/alien3_norm.png,0.4,TRUE,TRUE,2,0.052077783,purple,x,0.2843,alien4,TRUE,2,0.21342886,119,1,0.6,x,0.1841,0,215,215,215,1,0.3,0.7,0.4,0.6,TRUE,,,,,,,,,,,,,,,,,,,,,,,,,,,,,,,,,
330418,2023-11-03_17h16.17.951,two_step_task_legacy,2022.2.4,Win32,60.89763108,21,learning,0,resources/alien4_norm.png,0.6,resources/alien3_norm.png,0.4,TRUE,TRUE,2,0.102353589,purple,x,0.1674,alien4,TRUE,2,0.346557552,120,1,0.6,x,0.0522,0,216,216,216,1,0.3,0.7,0.4,0.6,TRUE,,,,,,,,,,,,,,,,,,,,,,,,,,,,,,,,,
330418,2023-11-03_17h16.17.951,two_step_task_legacy,2022.2.4,Win32,60.89763108,21,learning,0,resources/alien4_norm.png,0.6,resources/alien3_norm.png,0.4,TRUE,TRUE,2,0.110413238,purple,x,0.1051,alien4,TRUE,2,0.27023542,121,1,0.6,x,0.127,0,217,217,217,1,0.3,0.7,0.4,0.6,TRUE,,,,,,,,,,,,,,,,,,,,,,,,,,,,,,,,,
330418,2023-11-03_17h16.17.951,two_step_task_legacy,2022.2.4,Win32,60.89763108,21,learning,1,resources/alien2_norm.png,0.7,resources/alien1_norm.png,0.3,TRUE,TRUE,3,0.808929394,red,x,0.1559,alien2,TRUE,3,0.87011222,121,0,0.7,x,0.9168,0,218,218,218,1,0.3,0.7,0.4,0.6,TRUE,,,,,,,,,,,,,,,,,,,,,,,,,,,,,,,,,
330418,2023-11-03_17h16.17.951,two_step_task_legacy,2022.2.4,Win32,60.89763108,21,learning,0,resources/alien4_norm.png,0.6,resources/alien3_norm.png,0.4,TRUE,TRUE,2,0.286571067,purple,x,1.401,alien4,TRUE,2,0.24099954,122,1,0.6,x,1.3842,0,219,219,219,1,0.3,0.7,0.4,0.6,TRUE,,,,,,,,,,,,,,,,,,,,,,,,,,,,,,,,,
330418,2023-11-03_17h16.17.951,two_step_task_legacy,2022.2.4,Win32,60.89763108,21,learning,1,resources/alien2_norm.png,0.7,resources/alien1_norm.png,0.3,TRUE,TRUE,3,0.990262811,red,x,0.3227,alien2,TRUE,2,0.169772854,123,1,0.7,x,0.033,0,220,220,220,1,0.3,0.7,0.4,0.6,TRUE,,,,,,,,,,,,,,,,,,,,,,,,,,,,,,,,,
330418,2023-11-03_17h16.17.951,two_step_task_legacy,2022.2.4,Win32,60.89763108,21,learning,0,resources/alien3_norm.png,0.4,resources/alien4_norm.png,0.6,TRUE,TRUE,2,0.516090312,purple,x,0.0592,alien3,TRUE,3,0.686351061,123,0,0.4,x,0.3222,0,221,221,221,1,0.3,0.7,0.4,0.6,FALSE,,,,,,,,,,,,,,,,,,,,,,,,,,,,,,,,,
330418,2023-11-03_17h16.17.951,two_step_task_legacy,2022.2.4,Win32,60.89763108,21,learning,0,resources/alien3_norm.png,0.4,resources/alien4_norm.png,0.6,TRUE,TRUE,2,0.376846945,purple,x,0.1172,alien3,TRUE,2,0.351864885,124,1,0.4,x,0.0005,0,222,222,222,1,0.3,0.7,0.4,0.6,FALSE,,,,,,,,,,,,,,,,,,,,,,,,,,,,,,,,,
330418,2023-11-03_17h16.17.951,two_step_task_legacy,2022.2.4,Win32,60.89763108,21,learning,0,resources/alien3_norm.png,0.4,resources/alien4_norm.png,0.6,TRUE,TRUE,2,0.373547005,purple,x,0.0337,alien3,TRUE,2,0.237881568,125,1,0.4,x,0.2742,0,223,223,223,1,0.3,0.7,0.4,0.6,FALSE,,,,,,,,,,,,,,,,,,,,,,,,,,,,,,,,,
330418,2023-11-03_17h16.17.951,two_step_task_legacy,2022.2.4,Win32,60.89763108,21,learning,1,resources/alien1_norm.png,0.3,resources/alien2_norm.png,0.7,TRUE,TRUE,3,0.796100632,red,x,0.4841,alien1,TRUE,2,0.163976925,126,1,0.3,x,0.2585,0,224,224,224,1,0.3,0.7,0.4,0.6,FALSE,,,,,,,,,,,,,,,,,,,,,,,,,,,,,,,,,
330418,2023-11-03_17h16.17.951,two_step_task_legacy,2022.2.4,Win32,60.89763108,21,learning,0,resources/alien4_norm.png,0.6,resources/alien3_norm.png,0.4,TRUE,TRUE,2,0.180597877,purple,x,0.1198,alien4,TRUE,3,0.71904549,126,0,0.6,x,0.1887,0,225,225,225,1,0.3,0.7,0.4,0.6,TRUE,,,,,,,,,,,,,,,,,,,,,,,,,,,,,,,,,
330418,2023-11-03_17h16.17.951,two_step_task_legacy,2022.2.4,Win32,60.89763108,21,learning,1,resources/alien2_norm.png,0.7,resources/alien1_norm.png,0.3,TRUE,TRUE,3,0.940857697,red,x,0.0606,alien2,TRUE,2,0.387923142,127,1,0.7,x,0.116,0,226,226,226,1,0.3,0.7,0.4,0.6,TRUE,,,,,,,,,,,,,,,,,,,,,,,,,,,,,,,,,
330418,2023-11-03_17h16.17.951,two_step_task_legacy,2022.2.4,Win32,60.89763108,21,learning,1,resources/alien2_norm.png,0.7,resources/alien1_norm.png,0.3,TRUE,TRUE,3,0.91301423,red,x,0.0006,alien2,TRUE,3,0.801083241,127,0,0.7,x,0.301,0,227,227,227,1,0.3,0.7,0.4,0.6,TRUE,,,,,,,,,,,,,,,,,,,,,,,,,,,,,,,,,
330418,2023-11-03_17h16.17.951,two_step_task_legacy,2022.2.4,Win32,60.89763108,21,learning,0,resources/alien4_norm.png,0.6,resources/alien3_norm.png,0.4,TRUE,TRUE,2,0.475324674,purple,x,0.1223,alien4,TRUE,3,0.760683591,127,0,0.6,x,0.1923,0,228,228,228,1,0.3,0.7,0.4,0.6,TRUE,,,,,,,,,,,,,,,,,,,,,,,,,,,,,,,,,
330418,2023-11-03_17h16.17.951,two_step_task_legacy,2022.2.4,Win32,60.89763108,21,learning,0,resources/alien4_norm.png,0.6,resources/alien3_norm.png,0.4,TRUE,TRUE,2,0.127285434,purple,x,0.123,alien4,TRUE,2,0.181897974,128,1,0.6,x,0.1841,0,229,229,229,1,0.3,0.7,0.4,0.6,TRUE,,,,,,,,,,,,,,,,,,,,,,,,,,,,,,,,,
330418,2023-11-03_17h16.17.951,two_step_task_legacy,2022.2.4,Win32,60.89763108,21,learning,0,resources/alien3_norm.png,0.4,resources/alien4_norm.png,0.6,TRUE,TRUE,2,0.179099934,purple,x,0.0996,alien3,TRUE,3,0.676226697,128,0,0.4,x,0.134,0,230,230,230,1,0.3,0.7,0.4,0.6,FALSE,,,,,,,,,,,,,,,,,,,,,,,,,,,,,,,,,
330418,2023-11-03_17h16.17.951,two_step_task_legacy,2022.2.4,Win32,60.89763108,21,learning,0,resources/alien3_norm.png,0.4,resources/alien4_norm.png,0.6,TRUE,TRUE,2,0.064751454,purple,x,0.1001,alien3,TRUE,3,0.46000943,128,0,0.4,x,0.1506,0,231,231,231,1,0.3,0.7,0.4,0.6,FALSE,,,,,,,,,,,,,,,,,,,,,,,,,,,,,,,,,
330418,2023-11-03_17h16.17.951,two_step_task_legacy,2022.2.4,Win32,60.89763108,21,learning,0,resources/alien3_norm.png,0.4,resources/alien4_norm.png,0.6,TRUE,TRUE,2,0.695052842,purple,x,0.1949,alien3,TRUE,2,0.3363579,129,1,0.4,x,0.2344,0,232,232,232,1,0.3,0.7,0.4,0.6,FALSE,,,,,,,,,,,,,,,,,,,,,,,,,,,,,,,,,
330418,2023-11-03_17h16.17.951,two_step_task_legacy,2022.2.4,Win32,60.89763108,21,learning,0,resources/alien4_norm.png,0.6,resources/alien3_norm.png,0.4,TRUE,TRUE,2,0.513831901,purple,x,0.5509,alien4,TRUE,2,0.289357498,130,1,0.6,x,0.0844,0,233,233,233,1,0.3,0.7,0.4,0.6,TRUE,,,,,,,,,,,,,,,,,,,,,,,,,,,,,,,,,
330418,2023-11-03_17h16.17.951,two_step_task_legacy,2022.2.4,Win32,60.89763108,21,learning,1,resources/alien2_norm.png,0.7,resources/alien1_norm.png,0.3,TRUE,TRUE,3,0.988423968,red,x,0.1278,alien2,TRUE,2,0.342725739,131,1,0.7,x,0.1999,0,234,234,234,1,0.3,0.7,0.4,0.6,TRUE,,,,,,,,,,,,,,,,,,,,,,,,,,,,,,,,,
330418,2023-11-03_17h16.17.951,two_step_task_legacy,2022.2.4,Win32,60.89763108,21,learning,1,resources/alien1_norm.png,0.3,resources/alien2_norm.png,0.7,TRUE,TRUE,3,0.979117312,red,x,0.5353,alien1,TRUE,3,0.349308724,131,0,0.3,x,0.1675,0,235,235,235,1,0.3,0.7,0.4,0.6,FALSE,,,,,,,,,,,,,,,,,,,,,,,,,,,,,,,,,
330418,2023-11-03_17h16.17.951,two_step_task_legacy,2022.2.4,Win32,60.89763108,21,learning,0,resources/alien1_norm.png,0.3,resources/alien2_norm.png,0.7,TRUE,TRUE,3,0.10724267,red,m,0.2166,alien2,TRUE,2,0.061925805,132,1,0.7,m,0.2846,0,236,236,236,1,0.3,0.7,0.4,0.6,FALSE,,,,,,,,,,,,,,,,,,,,,,,,,,,,,,,,,
330418,2023-11-03_17h16.17.951,two_step_task_legacy,2022.2.4,Win32,60.89763108,21,learning,0,resources/alien2_norm.png,0.7,resources/alien1_norm.png,0.3,TRUE,TRUE,3,0.513796877,red,m,0.1504,alien2,TRUE,2,0.043641153,133,1,0.7,x,1.3967,0,237,237,237,1,0.3,0.7,0.4,0.6,TRUE,,,,,,,,,,,,,,,,,,,,,,,,,,,,,,,,,
330418,2023-11-03_17h16.17.951,two_step_task_legacy,2022.2.4,Win32,60.89763108,21,learning,1,resources/alien3_norm.png,0.4,resources/alien4_norm.png,0.6,TRUE,TRUE,2,0.718931578,purple,m,0.2505,alien4,TRUE,3,0.63768936,133,0,0.6,m,0.0831,0,238,238,238,1,0.3,0.7,0.4,0.6,FALSE,,,,,,,,,,,,,,,,,,,,,,,,,,,,,,,,,
330418,2023-11-03_17h16.17.951,two_step_task_legacy,2022.2.4,Win32,60.89763108,21,learning,0,resources/alien1_norm.png,0.3,resources/alien2_norm.png,0.7,TRUE,TRUE,3,0.133747604,red,m,0.3176,alien2,TRUE,2,0.682911299,134,1,0.7,m,0.2761,0,239,239,239,1,0.3,0.7,0.4,0.6,FALSE,,,,,,,,,,,,,,,,,,,,,,,,,,,,,,,,,
330418,2023-11-03_17h16.17.951,two_step_task_legacy,2022.2.4,Win32,60.89763108,21,learning,0,resources/alien3_norm.png,0.4,resources/alien4_norm.png,0.6,TRUE,TRUE,2,0.465886233,purple,x,0.0004,alien3,TRUE,2,0.171156281,135,1,0.4,x,0.2656,0,240,240,240,1,0.3,0.7,0.4,0.6,FALSE,,,,,,,,,,,,,,,,,,,,,,,,,,,,,,,,,
330418,2023-11-03_17h16.17.951,two_step_task_legacy,2022.2.4,Win32,60.89763108,21,learning,1,resources/alien2_norm.png,0.7,resources/alien1_norm.png,0.3,TRUE,TRUE,3,0.785615275,red,x,0.0837,alien1,TRUE,3,0.873744278,135,0,0.3,m,0.1388,0,241,241,241,1,0.3,0.7,0.4,0.6,TRUE,,,,,,,,,,,,,,,,,,,,,,,,,,,,,,,,,
330418,2023-11-03_17h16.17.951,two_step_task_legacy,2022.2.4,Win32,60.89763108,21,learning,1,resources/alien3_norm.png,0.4,resources/alien4_norm.png,0.6,TRUE,TRUE,2,0.997553457,purple,m,0.4209,alien4,TRUE,3,0.710711787,135,0,0.6,m,0.2161,0,242,242,242,1,0.3,0.7,0.4,0.6,FALSE,,,,,,,,,,,,,,,,,,,,,,,,,,,,,,,,,
330418,2023-11-03_17h16.17.951,two_step_task_legacy,2022.2.4,Win32,60.89763108,21,learning,0,resources/alien1_norm.png,0.3,resources/alien2_norm.png,0.7,TRUE,TRUE,3,0.198498067,red,m,0.2004,alien1,TRUE,3,0.886524129,135,0,0.3,x,0.0324,0,243,243,243,1,0.3,0.7,0.4,0.6,FALSE,,,,,,,,,,,,,,,,,,,,,,,,,,,,,,,,,
330418,2023-11-03_17h16.17.951,two_step_task_legacy,2022.2.4,Win32,60.89763108,21,learning,0,resources/alien2_norm.png,0.7,resources/alien1_norm.png,0.3,TRUE,TRUE,3,0.558883711,red,m,0.033,alien2,TRUE,3,0.895238821,135,0,0.7,x,0.1339,0,244,244,244,1,0.3,0.7,0.4,0.6,TRUE,,,,,,,,,,,,,,,,,,,,,,,,,,,,,,,,,
330418,2023-11-03_17h16.17.951,two_step_task_legacy,2022.2.4,Win32,60.89763108,21,learning,0,resources/alien3_norm.png,0.4,resources/alien4_norm.png,0.6,TRUE,TRUE,2,0.322822955,purple,x,0.0455,alien3,TRUE,2,0.029533707,136,1,0.4,x,0.2055,0,245,245,245,1,0.3,0.7,0.4,0.6,FALSE,,,,,,,,,,,,,,,,,,,,,,,,,,,,,,,,,
330418,2023-11-03_17h16.17.951,two_step_task_legacy,2022.2.4,Win32,60.89763108,21,learning,1,resources/alien1_norm.png,0.3,resources/alien2_norm.png,0.7,TRUE,TRUE,3,0.98603173,red,x,0.1057,alien2,TRUE,2,0.214542127,137,1,0.7,m,0.0497,0,246,246,246,1,0.3,0.7,0.4,0.6,FALSE,,,,,,,,,,,,,,,,,,,,,,,,,,,,,,,,,
330418,2023-11-03_17h16.17.951,two_step_task_legacy,2022.2.4,Win32,60.89763108,21,learning,0,resources/alien4_norm.png,0.6,resources/alien3_norm.png,0.4,TRUE,TRUE,2,0.253879612,purple,x,0.2443,alien3,TRUE,2,0.160121008,138,1,0.4,m,0.4608,0,247,247,247,1,0.3,0.7,0.4,0.6,TRUE,,,,,,,,,,,,,,,,,,,,,,,,,,,,,,,,,
330418,2023-11-03_17h16.17.951,two_step_task_legacy,2022.2.4,Win32,60.89763108,21,learning,0,resources/alien3_norm.png,0.4,resources/alien4_norm.png,0.6,TRUE,TRUE,2,0.189459246,purple,x,0.1301,alien3,TRUE,3,0.69626685,138,0,0.4,x,0.1506,0,248,248,248,1,0.3,0.7,0.4,0.6,FALSE,,,,,,,,,,,,,,,,,,,,,,,,,,,,,,,,,
330418,2023-11-03_17h16.17.951,two_step_task_legacy,2022.2.4,Win32,60.89763108,21,learning,0,resources/alien2_norm.png,0.7,resources/alien1_norm.png,0.3,TRUE,TRUE,3,0.544661169,red,m,0.0839,alien1,TRUE,2,0.19263101,139,1,0.3,m,0.0158,0,249,249,249,1,0.3,0.7,0.4,0.6,TRUE,,,,,,,,,,,,,,,,,,,,,,,,,,,,,,,,,
330418,2023-11-03_17h16.17.951,two_step_task_legacy,2022.2.4,Win32,60.89763108,21,learning,1,resources/alien4_norm.png,0.6,resources/alien3_norm.png,0.4,TRUE,TRUE,2,0.807758386,purple,m,2.1178,alien3,TRUE,3,0.735345395,139,0,0.4,m,0.0827,0,250,250,250,1,0.3,0.7,0.4,0.6,TRUE,,,,,,,,,,,,,,,,,,,,,,,,,,,,,,,,,
330418,2023-11-03_17h16.17.951,two_step_task_legacy,2022.2.4,Win32,60.89763108,21,learning,0,resources/alien2_norm.png,0.7,resources/alien1_norm.png,0.3,TRUE,TRUE,3,0.000733191,red,m,0.0672,alien1,TRUE,3,0.791391189,139,0,0.3,m,0.1639,0,251,251,251,1,0.3,0.7,0.4,0.6,TRUE,,,,,,,,,,,,,,,,,,,,,,,,,,,,,,,,,
330418,2023-11-03_17h16.17.951,two_step_task_legacy,2022.2.4,Win32,60.89763108,21,learning,1,resources/alien1_norm.png,0.3,resources/alien2_norm.png,0.7,TRUE,TRUE,3,0.840130224,red,x,0.2205,alien1,TRUE,3,0.333681141,139,0,0.3,x,0.0604,0,252,252,252,1,0.3,0.7,0.4,0.6,FALSE,,,,,,,,,,,,,,,,,,,,,,,,,,,,,,,,,
330418,2023-11-03_17h16.17.951,two_step_task_legacy,2022.2.4,Win32,60.89763108,21,learning,0,resources/alien4_norm.png,0.6,resources/alien3_norm.png,0.4,TRUE,TRUE,2,0.672043107,purple,x,0.2007,alien4,TRUE,2,0.573550871,140,1,0.6,x,0.1939,0,253,253,253,1,0.3,0.7,0.4,0.6,TRUE,,,,,,,,,,,,,,,,,,,,,,,,,,,,,,,,,
330418,2023-11-03_17h16.17.951,two_step_task_legacy,2022.2.4,Win32,60.89763108,21,learning,1,resources/alien1_norm.png,0.3,resources/alien2_norm.png,0.7,TRUE,TRUE,3,0.7877593,red,x,0.1936,alien1,TRUE,3,0.740221727,140,0,0.3,x,0.2004,0,254,254,254,1,0.3,0.7,0.4,0.6,FALSE,,,,,,,,,,,,,,,,,,,,,,,,,,,,,,,,,
330418,2023-11-03_17h16.17.951,two_step_task_legacy,2022.2.4,Win32,60.89763108,21,learning,1,resources/alien2_norm.png,0.7,resources/alien1_norm.png,0.3,TRUE,TRUE,3,0.743227457,red,x,0.5897,alien2,TRUE,2,0.673678957,141,1,0.7,x,0.2549,0,255,255,255,1,0.3,0.7,0.4,0.6,TRUE,,,,,,,,,,,,,,,,,,,,,,,,,,,,,,,,,
330418,2023-11-03_17h16.17.951,two_step_task_legacy,2022.2.4,Win32,60.89763108,21,learning,0,resources/alien3_norm.png,0.4,resources/alien4_norm.png,0.6,TRUE,TRUE,2,0.693413786,purple,x,0.2,alien3,TRUE,3,0.613179738,141,0,0.4,x,0.116,0,256,256,256,1,0.3,0.7,0.4,0.6,FALSE,,,,,,,,,,,,,,,,,,,,,,,,,,,,,,,,,
330418,2023-11-03_17h16.17.951,two_step_task_legacy,2022.2.4,Win32,60.89763108,21,learning,0,resources/alien3_norm.png,0.4,resources/alien4_norm.png,0.6,TRUE,TRUE,2,0.646427814,purple,x,0.0005,alien3,TRUE,3,0.408530154,141,0,0.4,x,0.055,0,257,257,257,1,0.3,0.7,0.4,0.6,FALSE,,,,,,,,,,,,,,,,,,,,,,,,,,,,,,,,,
330418,2023-11-03_17h16.17.951,two_step_task_legacy,2022.2.4,Win32,60.89763108,21,learning,0,resources/alien3_norm.png,0.4,resources/alien4_norm.png,0.6,TRUE,TRUE,2,0.102791648,purple,x,0.0005,alien3,TRUE,2,0.093894889,142,1,0.4,x,0.2508,0,258,258,258,1,0.3,0.7,0.4,0.6,FALSE,,,,,,,,,,,,,,,,,,,,,,,,,,,,,,,,,
330418,2023-11-03_17h16.17.951,two_step_task_legacy,2022.2.4,Win32,60.89763108,21,learning,1,resources/alien1_norm.png,0.3,resources/alien2_norm.png,0.7,TRUE,TRUE,3,0.884889827,red,x,0.2227,alien1,TRUE,3,0.902424468,142,0,0.3,x,0.1101,0,259,259,259,1,0.3,0.7,0.4,0.6,FALSE,,,,,,,,,,,,,,,,,,,,,,,,,,,,,,,,,
330418,2023-11-03_17h16.17.951,two_step_task_legacy,2022.2.4,Win32,60.89763108,21,learning,0,resources/alien4_norm.png,0.6,resources/alien3_norm.png,0.4,TRUE,TRUE,2,0.486327705,purple,x,0.4159,alien4,TRUE,2,0.125612465,143,1,0.6,x,0.1271,0,260,260,260,1,0.3,0.7,0.4,0.6,TRUE,,,,,,,,,,,,,,,,,,,,,,,,,,,,,,,,,
330418,2023-11-03_17h16.17.951,two_step_task_legacy,2022.2.4,Win32,60.89763108,21,learning,0,resources/alien3_norm.png,0.4,resources/alien4_norm.png,0.6,TRUE,TRUE,2,0.606999848,purple,x,0.2114,alien3,TRUE,2,0.39149116,144,1,0.4,x,0.1837,0,261,261,261,1,0.3,0.7,0.4,0.6,FALSE,,,,,,,,,,,,,,,,,,,,,,,,,,,,,,,,,
330418,2023-11-03_17h16.17.951,two_step_task_legacy,2022.2.4,Win32,60.89763108,21,learning,0,resources/alien3_norm.png,0.4,resources/alien4_norm.png,0.6,TRUE,TRUE,2,0.558538132,purple,x,0.0171,alien3,TRUE,2,0.093211888,145,1,0.4,x,0.1014,0,262,262,262,1,0.3,0.7,0.4,0.6,FALSE,,,,,,,,,,,,,,,,,,,,,,,,,,,,,,,,,
330418,2023-11-03_17h16.17.951,two_step_task_legacy,2022.2.4,Win32,60.89763108,21,learning,0,resources/alien4_norm.png,0.6,resources/alien3_norm.png,0.4,TRUE,TRUE,2,0.232875781,purple,x,0.0665,alien4,TRUE,2,0.140331514,146,1,0.6,x,0.2504,0,263,263,263,1,0.3,0.7,0.4,0.6,TRUE,,,,,,,,,,,,,,,,,,,,,,,,,,,,,,,,,
330418,2023-11-03_17h16.17.951,two_step_task_legacy,2022.2.4,Win32,60.89763108,21,learning,0,resources/alien3_norm.png,0.4,resources/alien4_norm.png,0.6,TRUE,TRUE,2,0.513663364,purple,x,0.2011,alien3,TRUE,3,0.46725152,146,0,0.4,x,0.1137,0,264,264,264,1,0.3,0.7,0.4,0.6,FALSE,,,,,,,,,,,,,,,,,,,,,,,,,,,,,,,,,
330418,2023-11-03_17h16.17.951,two_step_task_legacy,2022.2.4,Win32,60.89763108,21,learning,1,resources/alien1_norm.png,0.3,resources/alien2_norm.png,0.7,TRUE,TRUE,3,0.990942721,red,x,0.0497,alien1,TRUE,2,0.257256245,147,1,0.3,x,0.367,0,265,265,265,1,0.3,0.7,0.4,0.6,FALSE,,,,,,,,,,,,,,,,,,,,,,,,,,,,,,,,,
330418,2023-11-03_17h16.17.951,two_step_task_legacy,2022.2.4,Win32,60.89763108,21,learning,1,resources/alien1_norm.png,0.3,resources/alien2_norm.png,0.7,TRUE,TRUE,3,0.857027459,red,x,0.1506,alien1,TRUE,3,0.888593611,147,0,0.3,x,0.4509,0,266,266,266,1,0.3,0.7,0.4,0.6,FALSE,,,,,,,,,,,,,,,,,,,,,,,,,,,,,,,,,
330418,2023-11-03_17h16.17.951,two_step_task_legacy,2022.2.4,Win32,60.89763108,21,learning,0,resources/alien3_norm.png,0.4,resources/alien4_norm.png,0.6,TRUE,TRUE,2,0.389932437,purple,x,1.9145,alien3,TRUE,3,0.42241036,147,0,0.4,x,0.4836,0,267,267,267,1,0.3,0.7,0.4,0.6,FALSE,,,,,,,,,,,,,,,,,,,,,,,,,,,,,,,,,
330418,2023-11-03_17h16.17.951,two_step_task_legacy,2022.2.4,Win32,60.89763108,21,learning,0,resources/alien3_norm.png,0.4,resources/alien4_norm.png,0.6,TRUE,TRUE,2,0.042448046,purple,x,0.0504,alien3,TRUE,2,0.286070369,148,1,0.4,x,0.6345,0,268,268,268,1,0.3,0.7,0.4,0.6,FALSE,,,,,,,,,,,,,,,,,,,,,,,,,,,,,,,,,
330418,2023-11-03_17h16.17.951,two_step_task_legacy,2022.2.4,Win32,60.89763108,21,learning,1,resources/alien4_norm.png,0.6,resources/alien3_norm.png,0.4,TRUE,TRUE,2,0.7120434,purple,m,0.084,alien3,TRUE,2,0.189511754,149,1,0.4,m,0.3455,0,269,269,269,1,0.3,0.7,0.4,0.6,TRUE,,,,,,,,,,,,,,,,,,,,,,,,,,,,,,,,,
330418,2023-11-03_17h16.17.951,two_step_task_legacy,2022.2.4,Win32,60.89763108,21,learning,0,,,,,FALSE,FALSE,2,0.17417105,purple,,,,,,,,,,,,0,270,270,270,1,0.3,0.7,0.4,0.6,TRUE,,,,,,,,,,,,,,,,,,,,,,,,,,,,,,,,,
330418,2023-11-03_17h16.17.951,two_step_task_legacy,2022.2.4,Win32,60.89763108,21,learning,0,resources/alien3_norm.png,0.4,resources/alien4_norm.png,0.6,TRUE,TRUE,2,0.260199591,purple,x,0.2562,alien3,TRUE,3,0.527226199,149,0,0.4,x,0.0337,0,271,271,271,1,0.3,0.7,0.4,0.6,FALSE,,,,,,,,,,,,,,,,,,,,,,,,,,,,,,,,,
330418,2023-11-03_17h16.17.951,two_step_task_legacy,2022.2.4,Win32,60.89763108,21,learning,0,resources/alien3_norm.png,0.4,resources/alien4_norm.png,0.6,TRUE,TRUE,2,0.528574617,purple,x,0.1883,alien3,TRUE,2,0.34216849,150,1,0.4,x,0.2182,0,272,272,272,1,0.3,0.7,0.4,0.6,FALSE,,,,,,,,,,,,,,,,,,,,,,,,,,,,,,,,,
330418,2023-11-03_17h16.17.951,two_step_task_legacy,2022.2.4,Win32,60.89763108,21,learning,0,resources/alien3_norm.png,0.4,resources/alien4_norm.png,0.6,TRUE,TRUE,2,0.344372575,purple,x,0.0669,alien3,TRUE,3,0.723434176,150,0,0.4,x,0.1171,0,273,273,273,1,0.3,0.7,0.4,0.6,FALSE,,,,,,,,,,,,,,,,,,,,,,,,,,,,,,,,,
330418,2023-11-03_17h16.17.951,two_step_task_legacy,2022.2.4,Win32,60.89763108,21,learning,1,resources/alien2_norm.png,0.7,resources/alien1_norm.png,0.3,TRUE,TRUE,3,0.902966502,red,x,0.3703,alien2,TRUE,2,0.154799876,151,1,0.7,x,0.3607,0,274,274,274,1,0.3,0.7,0.4,0.6,TRUE,,,,,,,,,,,,,,,,,,,,,,,,,,,,,,,,,
330418,2023-11-03_17h16.17.951,two_step_task_legacy,2022.2.4,Win32,60.89763108,21,learning,0,resources/alien3_norm.png,0.4,resources/alien4_norm.png,0.6,TRUE,TRUE,2,0.590546649,purple,x,0.0551,alien4,TRUE,2,0.176564648,152,1,0.6,m,0.0363,0,275,275,275,1,0.3,0.7,0.4,0.6,FALSE,,,,,,,,,,,,,,,,,,,,,,,,,,,,,,,,,
330418,2023-11-03_17h16.17.951,two_step_task_legacy,2022.2.4,Win32,60.89763108,21,learning,0,resources/alien1_norm.png,0.3,resources/alien2_norm.png,0.7,TRUE,TRUE,3,0.201861088,red,m,0.2673,alien2,TRUE,2,0.128011017,153,1,0.7,m,0.1497,0,276,276,276,1,0.3,0.7,0.4,0.6,FALSE,,,,,,,,,,,,,,,,,,,,,,,,,,,,,,,,,
330418,2023-11-03_17h16.17.951,two_step_task_legacy,2022.2.4,Win32,60.89763108,21,learning,0,resources/alien1_norm.png,0.3,resources/alien2_norm.png,0.7,TRUE,TRUE,3,0.047790423,red,m,0.0496,alien2,TRUE,3,0.894560074,153,0,0.7,m,0.401,0,277,277,277,1,0.3,0.7,0.4,0.6,FALSE,,,,,,,,,,,,,,,,,,,,,,,,,,,,,,,,,
330418,2023-11-03_17h16.17.951,two_step_task_legacy,2022.2.4,Win32,60.89763108,21,learning,1,resources/alien3_norm.png,0.4,resources/alien4_norm.png,0.6,TRUE,TRUE,2,0.817798641,purple,m,0.1504,none,FALSE,NA,,153,0,0.7,,,0,278,278,278,1,0.3,0.7,0.4,0.6,FALSE,,,,,,,,,,,,,,,,,,,,,,,,,,,,,,,,,
330418,2023-11-03_17h16.17.951,two_step_task_legacy,2022.2.4,Win32,60.89763108,21,learning,1,resources/alien3_norm.png,0.4,resources/alien4_norm.png,0.6,TRUE,TRUE,2,0.885709386,purple,m,0.5343,alien4,TRUE,3,0.911101801,153,0,0.6,m,0.1673,0,279,279,279,1,0.3,0.7,0.4,0.6,FALSE,,,,,,,,,,,,,,,,,,,,,,,,,,,,,,,,,
330418,2023-11-03_17h16.17.951,two_step_task_legacy,2022.2.4,Win32,60.89763108,21,learning,0,resources/alien4_norm.png,0.6,resources/alien3_norm.png,0.4,TRUE,TRUE,2,0.249160433,purple,x,0.1505,alien4,TRUE,2,0.236216893,154,1,0.6,x,0.0674,0,280,280,280,1,0.3,0.7,0.4,0.6,TRUE,,,,,,,,,,,,,,,,,,,,,,,,,,,,,,,,,
330418,2023-11-03_17h16.17.951,two_step_task_legacy,2022.2.4,Win32,60.89763108,21,learning,0,resources/alien4_norm.png,0.6,resources/alien3_norm.png,0.4,TRUE,TRUE,2,0.274360689,purple,x,0.3431,alien4,TRUE,2,0.232408435,155,1,0.6,x,0.1835,0,281,281,281,1,0.3,0.7,0.4,0.6,TRUE,,,,,,,,,,,,,,,,,,,,,,,,,,,,,,,,,
330418,2023-11-03_17h16.17.951,two_step_task_legacy,2022.2.4,Win32,60.89763108,21,learning,0,resources/alien4_norm.png,0.6,resources/alien3_norm.png,0.4,TRUE,TRUE,2,0.052653484,purple,x,0.2255,alien4,TRUE,2,0.551120607,156,1,0.6,x,0.3063,0,282,282,282,1,0.3,0.7,0.4,0.6,TRUE,,,,,,,,,,,,,,,,,,,,,,,,,,,,,,,,,
330418,2023-11-03_17h16.17.951,two_step_task_legacy,2022.2.4,Win32,60.89763108,21,learning,1,resources/alien4_norm.png,0.6,resources/alien3_norm.png,0.4,TRUE,TRUE,2,0.818373718,purple,m,0.1047,alien3,TRUE,2,0.267713677,157,1,0.4,m,0.3452,0,283,283,283,1,0.3,0.7,0.4,0.6,TRUE,,,,,,,,,,,,,,,,,,,,,,,,,,,,,,,,,
330418,2023-11-03_17h16.17.951,two_step_task_legacy,2022.2.4,Win32,60.89763108,21,learning,0,resources/alien3_norm.png,0.4,resources/alien4_norm.png,0.6,TRUE,TRUE,2,0.207164481,purple,x,0.2008,alien3,TRUE,3,0.862762174,157,0,0.4,x,0.367,0,284,284,284,1,0.3,0.7,0.4,0.6,FALSE,,,,,,,,,,,,,,,,,,,,,,,,,,,,,,,,,
330418,2023-11-03_17h16.17.951,two_step_task_legacy,2022.2.4,Win32,60.89763108,21,learning,0,resources/alien2_norm.png,0.7,resources/alien1_norm.png,0.3,TRUE,TRUE,3,0.052845227,red,m,0.2228,alien1,TRUE,3,0.520425478,157,0,0.3,m,0.3605,0,285,285,285,1,0.3,0.7,0.4,0.6,TRUE,,,,,,,,,,,,,,,,,,,,,,,,,,,,,,,,,
330418,2023-11-03_17h16.17.951,two_step_task_legacy,2022.2.4,Win32,60.89763108,21,learning,0,resources/alien1_norm.png,0.3,resources/alien2_norm.png,0.7,TRUE,TRUE,3,0.613208065,red,m,0.1539,alien2,TRUE,2,0.363322648,158,1,0.7,m,0.7175,0,286,286,286,1,0.3,0.7,0.4,0.6,FALSE,,,,,,,,,,,,,,,,,,,,,,,,,,,,,,,,,
330418,2023-11-03_17h16.17.951,two_step_task_legacy,2022.2.4,Win32,60.89763108,21,learning,0,resources/alien1_norm.png,0.3,resources/alien2_norm.png,0.7,TRUE,TRUE,3,0.15533613,red,m,0.0005,alien2,TRUE,2,0.614390719,159,1,0.7,m,0.2969,0,287,287,287,1,0.3,0.7,0.4,0.6,FALSE,,,,,,,,,,,,,,,,,,,,,,,,,,,,,,,,,
330418,2023-11-03_17h16.17.951,two_step_task_legacy,2022.2.4,Win32,60.89763108,21,learning,0,resources/alien4_norm.png,0.6,resources/alien3_norm.png,0.4,TRUE,TRUE,2,0.178030084,purple,x,0.1945,alien4,TRUE,3,0.780578073,159,0,0.6,x,0.3673,0,288,288,288,1,0.3,0.7,0.4,0.6,TRUE,,,,,,,,,,,,,,,,,,,,,,,,,,,,,,,,,
330418,2023-11-03_17h16.17.951,two_step_task_legacy,2022.2.4,Win32,60.89763108,21,learning,1,resources/alien4_norm.png,0.6,resources/alien3_norm.png,0.4,TRUE,TRUE,2,0.747974299,purple,m,0.2057,alien3,TRUE,3,0.585695855,159,0,0.4,m,0.2673,0,289,289,289,1,0.3,0.7,0.4,0.6,TRUE,,,,,,,,,,,,,,,,,,,,,,,,,,,,,,,,,
330418,2023-11-03_17h16.17.951,two_step_task_legacy,2022.2.4,Win32,60.89763108,21,learning,1,resources/alien2_norm.png,0.7,resources/alien1_norm.png,0.3,TRUE,TRUE,3,0.786050783,red,x,0.1501,alien1,TRUE,3,0.520583254,159,0,0.3,m,0.0699,0,290,290,290,1,0.3,0.7,0.4,0.6,TRUE,,,,,,,,,,,,,,,,,,,,,,,,,,,,,,,,,
