participant,date,expName,psychopyVersion,OS,frameRate,payoff_list,phase,rare_transition,select_sp,show_alien,rocket_trans,rand_sp,planet,key_resp_exp.keys,loop_exp.thisRepN,loop_exp.thisTrialN,loop_exp.thisN,loop_exp.thisIndex,loop_exp.ran,p1,p2,p3,p4,flip_sides,left_alien,left_probabilty,right_alien,right_probabilty,key_resp_exp.rt,chosen_alien,select_alien,transmoney,rand_money,totalgold,trialgain,probs,key_resp_exp_alien.keys,key_resp_exp_alien.rt,static_probability_left,static_probability_right,key_resp_probe.keys,key_resp_probe.rt,accuracy,probe_loop.thisRepN,probe_loop.thisTrialN,probe_loop.thisN,probe_loop.thisIndex,probe_loop.ran,probe_la,probe_ra,key_resp.keys,key_resp.rt,slider.response,slider.rt,post_loop.thisRepN,post_loop.thisTrialN,post_loop.thisN,post_loop.thisIndex,post_loop.ran,text_up,pos_text_up,text_down,pos_img_left_up,left_up_img,right_up_img,left_down_img_1,left_down_img_2,right_down_img_1,right_down_img_2,size,show_slider
645197,2023-11-09_11h16.51.342,two_step_task_legacy,2022.2.4,Win32,60.37553583,,,,,,,,,,,,,,,,,,,,,,,,,,,,,,,,,,,,,,,,,,,,,,,,,,,,,,,,,,,,,,,,,,
645197,2023-11-09_11h16.51.342,two_step_task_legacy,2022.2.4,Win32,60.37553583,,,,,,,,,,,,,,,,,,,,,,,,,,,,,,,,,,,,,,,,,,,,,,,,,,,,,,,,,,,,,,,,,,
645197,2023-11-09_11h16.51.342,two_step_task_legacy,2022.2.4,Win32,60.37553583,,,,,,,,,,,,,,,,,,,,,,,,,,,,,,,,,,,,,,,,,,,,,,,,,,,,,,,,,,,,,,,,,,
645197,2023-11-09_11h16.51.342,two_step_task_legacy,2022.2.4,Win32,60.37553583,,,,,,,,,,,,,,,,,,,,,,,,,,,,,,,,,,,,,,,,,,,,,,,,,,,,,,,,,,,,,,,,,,
645197,2023-11-09_11h16.51.342,two_step_task_legacy,2022.2.4,Win32,60.37553583,,,,,,,,,,,,,,,,,,,,,,,,,,,,,,,,,,,,,,,,,,,,,,,,,,,,,,,,,,,,,,,,,,
645197,2023-11-09_11h16.51.342,two_step_task_legacy,2022.2.4,Win32,60.37553583,,,,,,,,,,,,,,,,,,,,,,,,,,,,,,,,,,,,,,,,,,,,,,,,,,,,,,,,,,,,,,,,,,
645197,2023-11-09_11h16.51.342,two_step_task_legacy,2022.2.4,Win32,60.37553583,,,,,,,,,,,,,,,,,,,,,,,,,,,,,,,,,,,,,,,,,,,,,,,,,,,,,,,,,,,,,,,,,,
645197,2023-11-09_11h16.51.342,two_step_task_legacy,2022.2.4,Win32,60.37553583,,,,,,,,,,,,,,,,,,,,,,,,,,,,,,,,,,,,,,,,,,,,,,,,,,,,,,,,,,,,,,,,,,
645197,2023-11-09_11h16.51.342,two_step_task_legacy,2022.2.4,Win32,60.37553583,,,,,,,,,,,,,,,,,,,,,,,,,,,,,,,,,,,,,,,,,,,,,,,,,,,,,,,,,,,,,,,,,,
645197,2023-11-09_11h16.51.342,two_step_task_legacy,2022.2.4,Win32,60.37553583,,,,,,,,,,,,,,,,,,,,,,,,,,,,,,,,,,,,,,,,,,,,,,,,,,,,,,,,,,,,,,,,,,
645197,2023-11-09_11h16.51.342,two_step_task_legacy,2022.2.4,Win32,60.37553583,,,,,,,,,,,,,,,,,,,,,,,,,,,,,,,,,,,,,,,,,,,,,,,,,,,,,,,,,,,,,,,,,,
645197,2023-11-09_11h16.51.342,two_step_task_legacy,2022.2.4,Win32,60.37553583,11,learning,1,FALSE,FALSE,3,0.701119557,yellow,,0,0,0,0,1,0.735004267,0.405760115,0.463481854,0.281474585,FALSE,,,,,,,,,,,,,,,,,,,,,,,,,,,,,,,,,,,,,,,,,,,,,,,
645197,2023-11-09_11h16.51.342,two_step_task_legacy,2022.2.4,Win32,60.37553583,11,learning,0,TRUE,TRUE,2,0.63147641,purple,x,0,1,1,1,1,0.726648013,0.409498917,0.470939609,0.277760257,TRUE,resources/alien4_norm.png,0.277760257,resources/alien3_norm.png,0.470939609,0.8878,alien3,TRUE,3,0.828471276,0,0,0.470939609,m,1.2996,,,,,,,,,,,,,,,,,,,,,,,,,,,,,,,,,
645197,2023-11-09_11h16.51.342,two_step_task_legacy,2022.2.4,Win32,60.37553583,11,learning,0,TRUE,TRUE,2,0.114590813,purple,x,0,2,2,2,1,0.735612575,0.398886568,0.495843388,0.270517849,FALSE,resources/alien3_norm.png,0.495843388,resources/alien4_norm.png,0.270517849,1.0899,alien4,TRUE,3,0.833067907,0,0,0.270517849,m,1.3047,,,,,,,,,,,,,,,,,,,,,,,,,,,,,,,,,
645197,2023-11-09_11h16.51.342,two_step_task_legacy,2022.2.4,Win32,60.37553583,11,learning,0,TRUE,TRUE,3,0.498143401,red,m,0,3,3,3,1,0.739079361,0.379898073,0.493294126,0.274263712,TRUE,resources/alien2_norm.png,0.379898073,resources/alien1_norm.png,0.739079361,0.7548,alien2,TRUE,2,0.164415659,1,1,0.379898073,x,0.697,,,,,,,,,,,,,,,,,,,,,,,,,,,,,,,,,
645197,2023-11-09_11h16.51.342,two_step_task_legacy,2022.2.4,Win32,60.37553583,11,learning,0,TRUE,TRUE,3,0.071440231,red,m,0,4,4,4,1,0.732547828,0.358463113,0.530188502,0.288243949,FALSE,resources/alien1_norm.png,0.732547828,resources/alien2_norm.png,0.358463113,2.0118,alien2,TRUE,3,0.747492615,1,0,0.358463113,m,0.7215,,,,,,,,,,,,,,,,,,,,,,,,,,,,,,,,,
645197,2023-11-09_11h16.51.342,two_step_task_legacy,2022.2.4,Win32,60.37553583,11,learning,0,TRUE,TRUE,3,0.3603208,red,m,0,5,5,5,1,0.74071327,0.38268738,0.492907968,0.316009642,FALSE,resources/alien1_norm.png,0.74071327,resources/alien2_norm.png,0.38268738,0.3364,alien2,TRUE,3,0.766851324,1,0,0.38268738,m,0.3389,,,,,,,,,,,,,,,,,,,,,,,,,,,,,,,,,
645197,2023-11-09_11h16.51.342,two_step_task_legacy,2022.2.4,Win32,60.37553583,11,learning,0,TRUE,TRUE,3,0.385598776,red,m,0,6,6,6,1,0.741200658,0.410091306,0.454369038,0.29370718,TRUE,resources/alien2_norm.png,0.410091306,resources/alien1_norm.png,0.741200658,0.6175,alien2,TRUE,3,0.977428122,1,0,0.410091306,x,1.7636,,,,,,,,,,,,,,,,,,,,,,,,,,,,,,,,,
645197,2023-11-09_11h16.51.342,two_step_task_legacy,2022.2.4,Win32,60.37553583,11,learning,0,TRUE,TRUE,3,0.017080976,red,m,0,7,7,7,1,0.741158735,0.397919021,0.436334861,0.322663367,TRUE,resources/alien2_norm.png,0.397919021,resources/alien1_norm.png,0.741158735,0.5666,alien1,TRUE,2,0.49023849,2,1,0.741158735,m,0.4223,,,,,,,,,,,,,,,,,,,,,,,,,,,,,,,,,
645197,2023-11-09_11h16.51.342,two_step_task_legacy,2022.2.4,Win32,60.37553583,11,learning,0,TRUE,TRUE,2,0.261543659,purple,x,0,8,8,8,1,0.722024971,0.387561009,0.426368741,0.321962032,TRUE,resources/alien4_norm.png,0.321962032,resources/alien3_norm.png,0.426368741,0.4332,alien4,TRUE,3,0.852100718,2,0,0.321962032,x,0.309,,,,,,,,,,,,,,,,,,,,,,,,,,,,,,,,,
645197,2023-11-09_11h16.51.342,two_step_task_legacy,2022.2.4,Win32,60.37553583,11,learning,1,TRUE,TRUE,3,0.839265025,red,x,0,9,9,9,1,0.730172366,0.407348494,0.452344181,0.30699842,TRUE,resources/alien2_norm.png,0.407348494,resources/alien1_norm.png,0.730172366,0.3497,alien1,TRUE,2,0.412259149,3,1,0.730172366,m,1.4449,,,,,,,,,,,,,,,,,,,,,,,,,,,,,,,,,
645197,2023-11-09_11h16.51.342,two_step_task_legacy,2022.2.4,Win32,60.37553583,11,learning,1,TRUE,TRUE,3,0.749794126,red,x,0,10,10,10,1,0.747999597,0.402942073,0.428097866,0.253366353,TRUE,resources/alien2_norm.png,0.402942073,resources/alien1_norm.png,0.747999597,1.0218,alien1,TRUE,2,0.227771869,4,1,0.747999597,m,0.6562,,,,,,,,,,,,,,,,,,,,,,,,,,,,,,,,,
645197,2023-11-09_11h16.51.342,two_step_task_legacy,2022.2.4,Win32,60.37553583,11,learning,1,TRUE,TRUE,3,0.755539688,red,x,0,11,11,11,1,0.721501316,0.406383509,0.407875273,0.285708472,TRUE,resources/alien2_norm.png,0.406383509,resources/alien1_norm.png,0.721501316,1.1394,alien1,TRUE,3,0.977185727,4,0,0.721501316,m,0.3831,,,,,,,,,,,,,,,,,,,,,,,,,,,,,,,,,
645197,2023-11-09_11h16.51.342,two_step_task_legacy,2022.2.4,Win32,60.37553583,11,learning,0,TRUE,TRUE,2,0.073802133,purple,x,0,12,12,12,1,0.691834539,0.413377317,0.409844896,0.300834026,FALSE,resources/alien3_norm.png,0.409844896,resources/alien4_norm.png,0.300834026,1.0619,alien3,TRUE,3,0.449937297,4,0,0.409844896,x,2.8659,,,,,,,,,,,,,,,,,,,,,,,,,,,,,,,,,
645197,2023-11-09_11h16.51.342,two_step_task_legacy,2022.2.4,Win32,60.37553583,11,learning,0,TRUE,TRUE,2,0.299181125,purple,x,0,13,13,13,1,0.733698146,0.41342159,0.387071895,0.332412063,FALSE,resources/alien3_norm.png,0.387071895,resources/alien4_norm.png,0.332412063,0.6083,alien4,TRUE,3,0.387742563,4,0,0.332412063,m,0.3857,,,,,,,,,,,,,,,,,,,,,,,,,,,,,,,,,
645197,2023-11-09_11h16.51.342,two_step_task_legacy,2022.2.4,Win32,60.37553583,11,learning,1,TRUE,TRUE,3,0.952694876,red,x,0,14,14,14,1,0.698813213,0.403346101,0.328671282,0.292973976,TRUE,resources/alien2_norm.png,0.403346101,resources/alien1_norm.png,0.698813213,0.6677,alien1,TRUE,2,0.129916036,5,1,0.698813213,m,0.8279,,,,,,,,,,,,,,,,,,,,,,,,,,,,,,,,,
645197,2023-11-09_11h16.51.342,two_step_task_legacy,2022.2.4,Win32,60.37553583,11,learning,1,TRUE,TRUE,2,0.94326772,purple,m,0,15,15,15,1,0.673597567,0.40250225,0.342113757,0.33043911,FALSE,resources/alien3_norm.png,0.342113757,resources/alien4_norm.png,0.33043911,0.6404,alien3,TRUE,3,0.926872401,5,0,0.342113757,x,1.087,,,,,,,,,,,,,,,,,,,,,,,,,,,,,,,,,
645197,2023-11-09_11h16.51.342,two_step_task_legacy,2022.2.4,Win32,60.37553583,11,learning,0,TRUE,TRUE,3,0.307858029,red,m,0,16,16,16,1,0.680184118,0.424573709,0.346400472,0.338837976,TRUE,resources/alien2_norm.png,0.424573709,resources/alien1_norm.png,0.680184118,0.521,alien1,TRUE,2,0.346864937,6,1,0.680184118,m,0.6014,,,,,,,,,,,,,,,,,,,,,,,,,,,,,,,,,
645197,2023-11-09_11h16.51.342,two_step_task_legacy,2022.2.4,Win32,60.37553583,11,learning,1,TRUE,TRUE,2,0.747279604,purple,m,0,17,17,17,1,0.695581347,0.425223256,0.33217653,0.308440183,FALSE,resources/alien3_norm.png,0.33217653,resources/alien4_norm.png,0.308440183,0.5843,alien4,TRUE,3,0.647402556,6,0,0.308440183,m,0.8541,,,,,,,,,,,,,,,,,,,,,,,,,,,,,,,,,
645197,2023-11-09_11h16.51.342,two_step_task_legacy,2022.2.4,Win32,60.37553583,11,learning,0,TRUE,TRUE,2,0.085024722,purple,x,0,18,18,18,1,0.665279829,0.395443845,0.385355991,0.307336406,FALSE,resources/alien3_norm.png,0.385355991,resources/alien4_norm.png,0.307336406,0.931,alien4,TRUE,3,0.760204607,6,0,0.307336406,m,0.4837,,,,,,,,,,,,,,,,,,,,,,,,,,,,,,,,,
645197,2023-11-09_11h16.51.342,two_step_task_legacy,2022.2.4,Win32,60.37553583,11,learning,0,TRUE,TRUE,3,0.678862033,red,m,0,19,19,19,1,0.661411279,0.435220861,0.401923143,0.290351741,FALSE,resources/alien1_norm.png,0.661411279,resources/alien2_norm.png,0.435220861,0.4186,alien2,TRUE,2,0.002314858,7,1,0.435220861,m,0.3492,,,,,,,,,,,,,,,,,,,,,,,,,,,,,,,,,
645197,2023-11-09_11h16.51.342,two_step_task_legacy,2022.2.4,Win32,60.37553583,11,learning,0,TRUE,TRUE,3,0.484780647,red,m,0,20,20,20,1,0.661949138,0.410912611,0.398249836,0.271196954,FALSE,resources/alien1_norm.png,0.661949138,resources/alien2_norm.png,0.410912611,0.5676,alien1,TRUE,2,0.064490607,8,1,0.661949138,x,0.3629,,,,,,,,,,,,,,,,,,,,,,,,,,,,,,,,,
645197,2023-11-09_11h16.51.342,two_step_task_legacy,2022.2.4,Win32,60.37553583,11,learning,0,TRUE,TRUE,3,0.555178629,red,m,0,21,21,21,1,0.654233993,0.43410913,0.415225809,0.252366339,FALSE,resources/alien1_norm.png,0.654233993,resources/alien2_norm.png,0.43410913,0.5153,alien1,TRUE,2,0.176690662,9,1,0.654233993,x,0.671,,,,,,,,,,,,,,,,,,,,,,,,,,,,,,,,,
645197,2023-11-09_11h16.51.342,two_step_task_legacy,2022.2.4,Win32,60.37553583,11,learning,1,TRUE,TRUE,2,0.778769063,purple,m,0,22,22,22,1,0.67678513,0.388227855,0.452186207,0.287515569,TRUE,resources/alien4_norm.png,0.287515569,resources/alien3_norm.png,0.452186207,0.4393,alien3,TRUE,3,0.903511053,9,0,0.452186207,m,1.0496,,,,,,,,,,,,,,,,,,,,,,,,,,,,,,,,,
645197,2023-11-09_11h16.51.342,two_step_task_legacy,2022.2.4,Win32,60.37553583,11,learning,0,TRUE,TRUE,2,0.511743264,purple,x,0,23,23,23,1,0.659885743,0.389511366,0.461093342,0.271854671,TRUE,resources/alien4_norm.png,0.271854671,resources/alien3_norm.png,0.461093342,1.0379,alien4,TRUE,3,0.689139107,9,0,0.271854671,x,0.917,,,,,,,,,,,,,,,,,,,,,,,,,,,,,,,,,
645197,2023-11-09_11h16.51.342,two_step_task_legacy,2022.2.4,Win32,60.37553583,11,learning,0,TRUE,TRUE,3,0.476417099,red,m,0,24,24,24,1,0.666068018,0.398800031,0.449009712,0.265652547,TRUE,resources/alien2_norm.png,0.398800031,resources/alien1_norm.png,0.666068018,0.4889,alien1,TRUE,2,0.532303841,10,1,0.666068018,m,0.5729,,,,,,,,,,,,,,,,,,,,,,,,,,,,,,,,,
645197,2023-11-09_11h16.51.342,two_step_task_legacy,2022.2.4,Win32,60.37553583,11,learning,0,TRUE,TRUE,3,0.418086958,red,m,0,25,25,25,1,0.693855048,0.413573954,0.452565344,0.25034404,TRUE,resources/alien2_norm.png,0.413573954,resources/alien1_norm.png,0.693855048,0.457,alien1,TRUE,3,0.888635755,10,0,0.693855048,m,0.4231,,,,,,,,,,,,,,,,,,,,,,,,,,,,,,,,,
645197,2023-11-09_11h16.51.342,two_step_task_legacy,2022.2.4,Win32,60.37553583,11,learning,1,TRUE,TRUE,2,0.774375118,purple,m,0,26,26,26,1,0.665387551,0.433242785,0.440419535,0.257320124,TRUE,resources/alien4_norm.png,0.257320124,resources/alien3_norm.png,0.440419535,0.3727,alien4,TRUE,3,0.474246545,10,0,0.257320124,x,1.5907,,,,,,,,,,,,,,,,,,,,,,,,,,,,,,,,,
645197,2023-11-09_11h16.51.342,two_step_task_legacy,2022.2.4,Win32,60.37553583,11,learning,0,TRUE,TRUE,3,0.443994976,red,m,0,27,27,27,1,0.636497297,0.448773815,0.415619749,0.254034703,TRUE,resources/alien2_norm.png,0.448773815,resources/alien1_norm.png,0.636497297,0.5666,alien1,TRUE,2,0.625727732,11,1,0.636497297,m,0.8755,,,,,,,,,,,,,,,,,,,,,,,,,,,,,,,,,
645197,2023-11-09_11h16.51.342,two_step_task_legacy,2022.2.4,Win32,60.37553583,11,learning,0,TRUE,TRUE,3,0.217652905,red,m,0,28,28,28,1,0.638994832,0.429405459,0.383697745,0.268687372,TRUE,resources/alien2_norm.png,0.429405459,resources/alien1_norm.png,0.638994832,1.3108,alien1,TRUE,2,0.127788271,12,1,0.638994832,m,0.5065,,,,,,,,,,,,,,,,,,,,,,,,,,,,,,,,,
645197,2023-11-09_11h16.51.342,two_step_task_legacy,2022.2.4,Win32,60.37553583,11,learning,0,FALSE,FALSE,2,0.441063572,red,,0,29,29,29,1,0.578130636,0.410940076,0.385779103,0.269139552,TRUE,,,,,,,,,,,,,,,,,,,,,,,,,,,,,,,,,,,,,,,,,,,,,,,
645197,2023-11-09_11h16.51.342,two_step_task_legacy,2022.2.4,Win32,60.37553583,11,learning,0,TRUE,TRUE,2,0.598865007,purple,x,0,30,30,30,1,0.547015321,0.431141489,0.457376883,0.274735338,TRUE,resources/alien4_norm.png,0.274735338,resources/alien3_norm.png,0.457376883,0.4335,alien4,TRUE,3,0.681664023,12,0,0.274735338,x,0.72,,,,,,,,,,,,,,,,,,,,,,,,,,,,,,,,,
645197,2023-11-09_11h16.51.342,two_step_task_legacy,2022.2.4,Win32,60.37553583,11,learning,0,TRUE,TRUE,3,0.342656061,red,m,0,31,31,31,1,0.489685474,0.476757946,0.460317929,0.260113935,TRUE,resources/alien2_norm.png,0.476757946,resources/alien1_norm.png,0.489685474,0.6656,alien1,TRUE,2,0.123182881,13,1,0.489685474,m,0.5285,,,,,,,,,,,,,,,,,,,,,,,,,,,,,,,,,
645197,2023-11-09_11h16.51.342,two_step_task_legacy,2022.2.4,Win32,60.37553583,11,learning,0,TRUE,TRUE,3,0.58265899,red,m,0,32,32,32,1,0.536848324,0.47271727,0.462294434,0.27332593,TRUE,resources/alien2_norm.png,0.47271727,resources/alien1_norm.png,0.536848324,0.471,alien1,TRUE,3,0.729001545,13,0,0.536848324,m,0.434,,,,,,,,,,,,,,,,,,,,,,,,,,,,,,,,,
645197,2023-11-09_11h16.51.342,two_step_task_legacy,2022.2.4,Win32,60.37553583,11,learning,0,TRUE,TRUE,3,0.65967435,red,m,0,33,33,33,1,0.551396021,0.483591319,0.506024589,0.282754269,FALSE,resources/alien1_norm.png,0.551396021,resources/alien2_norm.png,0.483591319,0.5939,alien1,TRUE,3,0.845065688,13,0,0.551396021,x,1.2941,,,,,,,,,,,,,,,,,,,,,,,,,,,,,,,,,
645197,2023-11-09_11h16.51.342,two_step_task_legacy,2022.2.4,Win32,60.37553583,11,learning,0,TRUE,TRUE,3,0.058255493,red,m,0,34,34,34,1,0.512254452,0.470837367,0.457029769,0.269186602,TRUE,resources/alien2_norm.png,0.470837367,resources/alien1_norm.png,0.512254452,0.8865,alien1,TRUE,3,0.889149452,13,0,0.512254452,m,0.8042,,,,,,,,,,,,,,,,,,,,,,,,,,,,,,,,,
645197,2023-11-09_11h16.51.342,two_step_task_legacy,2022.2.4,Win32,60.37553583,11,learning,0,TRUE,TRUE,3,0.650290882,red,m,0,35,35,35,1,0.491662308,0.465775001,0.447420114,0.265710056,FALSE,resources/alien1_norm.png,0.491662308,resources/alien2_norm.png,0.465775001,0.5059,alien1,TRUE,3,0.533907747,13,0,0.491662308,x,0.9388,,,,,,,,,,,,,,,,,,,,,,,,,,,,,,,,,
645197,2023-11-09_11h16.51.342,two_step_task_legacy,2022.2.4,Win32,60.37553583,11,learning,0,TRUE,TRUE,3,0.068240539,red,m,0,36,36,36,1,0.493384941,0.411646758,0.428082592,0.25827737,TRUE,resources/alien2_norm.png,0.411646758,resources/alien1_norm.png,0.493384941,0.3515,alien2,TRUE,2,0.197467633,14,1,0.411646758,x,1.6412,,,,,,,,,,,,,,,,,,,,,,,,,,,,,,,,,
645197,2023-11-09_11h16.51.342,two_step_task_legacy,2022.2.4,Win32,60.37553583,11,learning,0,TRUE,TRUE,3,0.070421242,red,m,0,37,37,37,1,0.493769778,0.429699634,0.373204395,0.27590428,TRUE,resources/alien2_norm.png,0.429699634,resources/alien1_norm.png,0.493769778,0.6214,alien2,TRUE,3,0.627594531,14,0,0.429699634,x,0.4116,,,,,,,,,,,,,,,,,,,,,,,,,,,,,,,,,
645197,2023-11-09_11h16.51.342,two_step_task_legacy,2022.2.4,Win32,60.37553583,11,learning,1,TRUE,TRUE,2,0.939625294,purple,m,0,38,38,38,1,0.466597382,0.413411606,0.347691188,0.280094663,TRUE,resources/alien4_norm.png,0.280094663,resources/alien3_norm.png,0.347691188,0.5166,alien4,TRUE,3,0.321576477,14,0,0.280094663,x,1.4405,,,,,,,,,,,,,,,,,,,,,,,,,,,,,,,,,
645197,2023-11-09_11h16.51.342,two_step_task_legacy,2022.2.4,Win32,60.37553583,11,learning,1,TRUE,TRUE,2,0.747813,purple,m,0,39,39,39,1,0.505923327,0.411869078,0.322095757,0.339573972,FALSE,resources/alien3_norm.png,0.322095757,resources/alien4_norm.png,0.339573972,0.8561,alien4,TRUE,3,0.453634572,14,0,0.339573972,m,0.98,,,,,,,,,,,,,,,,,,,,,,,,,,,,,,,,,
645197,2023-11-09_11h16.51.342,two_step_task_legacy,2022.2.4,Win32,60.37553583,11,learning,0,TRUE,TRUE,3,0.433706599,red,m,0,40,40,40,1,0.516666368,0.417303574,0.322962358,0.358756435,TRUE,resources/alien2_norm.png,0.417303574,resources/alien1_norm.png,0.516666368,0.7339,alien1,TRUE,3,0.846462102,14,0,0.516666368,m,2.221,,,,,,,,,,,,,,,,,,,,,,,,,,,,,,,,,
645197,2023-11-09_11h16.51.342,two_step_task_legacy,2022.2.4,Win32,60.37553583,11,learning,0,TRUE,TRUE,3,0.390137056,red,m,0,41,41,41,1,0.550750768,0.444104911,0.294911851,0.357938031,TRUE,resources/alien2_norm.png,0.444104911,resources/alien1_norm.png,0.550750768,0.5852,alien2,TRUE,3,0.627131713,14,0,0.444104911,x,1.5856,,,,,,,,,,,,,,,,,,,,,,,,,,,,,,,,,
645197,2023-11-09_11h16.51.342,two_step_task_legacy,2022.2.4,Win32,60.37553583,11,learning,0,TRUE,TRUE,2,0.289771144,purple,x,0,42,42,42,1,0.525571539,0.485191645,0.308104121,0.339040206,TRUE,resources/alien4_norm.png,0.339040206,resources/alien3_norm.png,0.308104121,0.7274,alien4,TRUE,2,0.220715978,15,1,0.339040206,x,0.3643,,,,,,,,,,,,,,,,,,,,,,,,,,,,,,,,,
645197,2023-11-09_11h16.51.342,two_step_task_legacy,2022.2.4,Win32,60.37553583,11,learning,0,TRUE,TRUE,2,0.383967884,purple,x,0,43,43,43,1,0.50426409,0.481454084,0.326958644,0.333505879,TRUE,resources/alien4_norm.png,0.333505879,resources/alien3_norm.png,0.326958644,0.3195,alien3,TRUE,3,0.708210699,15,0,0.326958644,m,0.5001,,,,,,,,,,,,,,,,,,,,,,,,,,,,,,,,,
645197,2023-11-09_11h16.51.342,two_step_task_legacy,2022.2.4,Win32,60.37553583,11,learning,0,TRUE,TRUE,2,0.177056072,purple,x,0,44,44,44,1,0.481265357,0.499315814,0.356507974,0.323735934,FALSE,resources/alien3_norm.png,0.356507974,resources/alien4_norm.png,0.323735934,0.3855,alien4,TRUE,3,0.531012312,15,0,0.323735934,m,0.991,,,,,,,,,,,,,,,,,,,,,,,,,,,,,,,,,
645197,2023-11-09_11h16.51.342,two_step_task_legacy,2022.2.4,Win32,60.37553583,11,learning,0,TRUE,TRUE,2,0.518282077,purple,x,0,45,45,45,1,0.522309201,0.536711439,0.357876875,0.290739862,FALSE,resources/alien3_norm.png,0.357876875,resources/alien4_norm.png,0.290739862,0.5025,alien4,TRUE,2,0.073135384,16,1,0.290739862,m,0.4449,,,,,,,,,,,,,,,,,,,,,,,,,,,,,,,,,
645197,2023-11-09_11h16.51.342,two_step_task_legacy,2022.2.4,Win32,60.37553583,11,learning,0,TRUE,TRUE,2,0.628937389,purple,x,0,46,46,46,1,0.496462145,0.50305264,0.360329221,0.278991374,FALSE,resources/alien3_norm.png,0.360329221,resources/alien4_norm.png,0.278991374,0.8379,alien4,TRUE,3,0.627186784,16,0,0.278991374,m,0.453,,,,,,,,,,,,,,,,,,,,,,,,,,,,,,,,,
645197,2023-11-09_11h16.51.342,two_step_task_legacy,2022.2.4,Win32,60.37553583,11,learning,1,TRUE,TRUE,2,0.786216352,purple,m,0,47,47,47,1,0.493644531,0.485086755,0.343718868,0.305174823,TRUE,resources/alien4_norm.png,0.305174823,resources/alien3_norm.png,0.343718868,0.3507,alien3,TRUE,2,0.003563572,17,1,0.343718868,m,1.2463,,,,,,,,,,,,,,,,,,,,,,,,,,,,,,,,,
645197,2023-11-09_11h16.51.342,two_step_task_legacy,2022.2.4,Win32,60.37553583,11,learning,0,TRUE,TRUE,2,0.345183798,purple,x,0,48,48,48,1,0.491945355,0.483205309,0.345401109,0.31787677,TRUE,resources/alien4_norm.png,0.31787677,resources/alien3_norm.png,0.345401109,0.4035,alien3,TRUE,3,0.77094598,17,0,0.345401109,m,0.3499,,,,,,,,,,,,,,,,,,,,,,,,,,,,,,,,,
645197,2023-11-09_11h16.51.342,two_step_task_legacy,2022.2.4,Win32,60.37553583,11,learning,0,TRUE,TRUE,3,0.617751361,red,m,0,49,49,49,1,0.517740593,0.502991622,0.373728587,0.277022005,TRUE,resources/alien2_norm.png,0.502991622,resources/alien1_norm.png,0.517740593,0.8098,alien2,TRUE,3,0.595543237,17,0,0.502991622,x,0.4163,,,,,,,,,,,,,,,,,,,,,,,,,,,,,,,,,
645197,2023-11-09_11h16.51.342,two_step_task_legacy,2022.2.4,Win32,60.37553583,11,learning,0,TRUE,TRUE,2,2.95668E-05,purple,x,0,50,50,50,1,0.520150615,0.50684998,0.348397501,0.270042045,FALSE,resources/alien3_norm.png,0.348397501,resources/alien4_norm.png,0.270042045,0.3887,alien3,TRUE,3,0.519874706,17,0,0.348397501,x,0.325,,,,,,,,,,,,,,,,,,,,,,,,,,,,,,,,,
645197,2023-11-09_11h16.51.342,two_step_task_legacy,2022.2.4,Win32,60.37553583,11,learning,1,TRUE,TRUE,3,0.983631074,red,x,0,51,51,51,1,0.5351946,0.526013812,0.402425342,0.255023094,TRUE,resources/alien2_norm.png,0.526013812,resources/alien1_norm.png,0.5351946,0.3917,alien1,TRUE,2,0.027247723,18,1,0.5351946,m,1.5896,,,,,,,,,,,,,,,,,,,,,,,,,,,,,,,,,
645197,2023-11-09_11h16.51.342,two_step_task_legacy,2022.2.4,Win32,60.37553583,11,learning,0,TRUE,TRUE,3,0.613847658,red,m,0,52,52,52,1,0.566527291,0.531253596,0.405415746,0.287660245,TRUE,resources/alien2_norm.png,0.531253596,resources/alien1_norm.png,0.566527291,0.4878,alien2,TRUE,2,0.225988821,19,1,0.531253596,x,0.4901,,,,,,,,,,,,,,,,,,,,,,,,,,,,,,,,,
645197,2023-11-09_11h16.51.342,two_step_task_legacy,2022.2.4,Win32,60.37553583,11,learning,1,TRUE,TRUE,3,0.89960006,red,x,0,53,53,53,1,0.573303228,0.504003796,0.38709589,0.304407373,FALSE,resources/alien1_norm.png,0.573303228,resources/alien2_norm.png,0.504003796,0.3253,alien1,TRUE,2,0.329252785,20,1,0.573303228,x,1.6184,,,,,,,,,,,,,,,,,,,,,,,,,,,,,,,,,
645197,2023-11-09_11h16.51.342,two_step_task_legacy,2022.2.4,Win32,60.37553583,11,learning,1,TRUE,TRUE,2,0.917786997,purple,m,0,54,54,54,1,0.600344675,0.525650001,0.383678743,0.316597135,TRUE,resources/alien4_norm.png,0.316597135,resources/alien3_norm.png,0.383678743,0.3771,alien3,TRUE,3,0.479974123,20,0,0.383678743,m,0.494,,,,,,,,,,,,,,,,,,,,,,,,,,,,,,,,,
645197,2023-11-09_11h16.51.342,two_step_task_legacy,2022.2.4,Win32,60.37553583,11,learning,0,TRUE,TRUE,2,0.625806235,purple,x,0,55,55,55,1,0.595996806,0.507899843,0.36987251,0.257280936,TRUE,resources/alien4_norm.png,0.257280936,resources/alien3_norm.png,0.36987251,0.318,alien4,TRUE,3,0.273444249,20,0,0.257280936,x,0.3996,,,,,,,,,,,,,,,,,,,,,,,,,,,,,,,,,
645197,2023-11-09_11h16.51.342,two_step_task_legacy,2022.2.4,Win32,60.37553583,11,learning,1,TRUE,TRUE,2,0.9511726,purple,m,0,56,56,56,1,0.582664231,0.449466026,0.407284747,0.271589073,TRUE,resources/alien4_norm.png,0.271589073,resources/alien3_norm.png,0.407284747,0.3816,alien3,TRUE,3,0.70070422,20,0,0.407284747,m,0.9211,,,,,,,,,,,,,,,,,,,,,,,,,,,,,,,,,
645197,2023-11-09_11h16.51.342,two_step_task_legacy,2022.2.4,Win32,60.37553583,11,learning,0,TRUE,TRUE,2,0.285887127,purple,x,0,57,57,57,1,0.538753325,0.438069661,0.421476831,0.259809431,FALSE,resources/alien3_norm.png,0.421476831,resources/alien4_norm.png,0.259809431,0.4061,alien4,TRUE,3,0.645356819,20,0,0.259809431,m,0.9498,,,,,,,,,,,,,,,,,,,,,,,,,,,,,,,,,
645197,2023-11-09_11h16.51.342,two_step_task_legacy,2022.2.4,Win32,60.37553583,11,learning,1,TRUE,TRUE,2,0.88046456,purple,m,0,58,58,58,1,0.542473982,0.419697183,0.440081302,0.268303514,FALSE,resources/alien3_norm.png,0.440081302,resources/alien4_norm.png,0.268303514,0.3431,alien3,TRUE,2,0.091724434,21,1,0.440081302,x,2.5511,,,,,,,,,,,,,,,,,,,,,,,,,,,,,,,,,
645197,2023-11-09_11h16.51.342,two_step_task_legacy,2022.2.4,Win32,60.37553583,11,learning,0,TRUE,TRUE,3,0.596979908,red,m,0,59,59,59,1,0.564082304,0.450393207,0.498884326,0.280957594,TRUE,resources/alien2_norm.png,0.450393207,resources/alien1_norm.png,0.564082304,0.8366,alien1,TRUE,2,0.061753452,22,1,0.564082304,m,0.8376,,,,,,,,,,,,,,,,,,,,,,,,,,,,,,,,,
645197,2023-11-09_11h16.51.342,two_step_task_legacy,2022.2.4,Win32,60.37553583,11,learning,0,TRUE,TRUE,3,0.39652335,red,m,0,60,60,60,1,0.53981291,0.437230037,0.512334178,0.29816981,FALSE,resources/alien1_norm.png,0.53981291,resources/alien2_norm.png,0.437230037,0.5543,alien2,TRUE,3,0.561123717,22,0,0.437230037,m,0.5165,,,,,,,,,,,,,,,,,,,,,,,,,,,,,,,,,
645197,2023-11-09_11h16.51.342,two_step_task_legacy,2022.2.4,Win32,60.37553583,11,learning,1,TRUE,TRUE,2,0.719071665,purple,m,0,61,61,61,1,0.542198582,0.408523574,0.493255749,0.300398038,TRUE,resources/alien4_norm.png,0.300398038,resources/alien3_norm.png,0.493255749,0.3561,alien4,TRUE,3,0.87000667,22,0,0.300398038,x,0.935,,,,,,,,,,,,,,,,,,,,,,,,,,,,,,,,,
645197,2023-11-09_11h16.51.342,two_step_task_legacy,2022.2.4,Win32,60.37553583,11,learning,1,TRUE,TRUE,2,0.928376739,purple,m,0,62,62,62,1,0.553400411,0.411077926,0.455736393,0.328365954,FALSE,resources/alien3_norm.png,0.455736393,resources/alien4_norm.png,0.328365954,0.5449,alien4,TRUE,3,0.99492476,22,0,0.328365954,m,0.3567,,,,,,,,,,,,,,,,,,,,,,,,,,,,,,,,,
645197,2023-11-09_11h16.51.342,two_step_task_legacy,2022.2.4,Win32,60.37553583,11,learning,0,TRUE,TRUE,3,0.533295465,red,m,0,63,63,63,1,0.532091217,0.406019514,0.43085802,0.296052257,TRUE,resources/alien2_norm.png,0.406019514,resources/alien1_norm.png,0.532091217,0.2553,alien2,TRUE,3,0.515551443,22,0,0.406019514,x,0.6012,,,,,,,,,,,,,,,,,,,,,,,,,,,,,,,,,
645197,2023-11-09_11h16.51.342,two_step_task_legacy,2022.2.4,Win32,60.37553583,11,learning,0,TRUE,TRUE,2,0.087548627,purple,x,0,64,64,64,1,0.528556267,0.402954101,0.431770405,0.308549713,TRUE,resources/alien4_norm.png,0.308549713,resources/alien3_norm.png,0.431770405,0.3939,alien4,TRUE,3,0.319134684,22,0,0.308549713,x,1.0227,,,,,,,,,,,,,,,,,,,,,,,,,,,,,,,,,
645197,2023-11-09_11h16.51.342,two_step_task_legacy,2022.2.4,Win32,60.37553583,11,learning,0,TRUE,TRUE,3,0.10709743,red,m,0,65,65,65,1,0.530871421,0.378496771,0.408306448,0.335566259,FALSE,resources/alien1_norm.png,0.530871421,resources/alien2_norm.png,0.378496771,0.3497,alien1,TRUE,3,0.894762956,22,0,0.530871421,x,1.2461,,,,,,,,,,,,,,,,,,,,,,,,,,,,,,,,,
645197,2023-11-09_11h16.51.342,two_step_task_legacy,2022.2.4,Win32,60.37553583,11,learning,0,TRUE,TRUE,3,0.161755424,red,m,0,66,66,66,1,0.570239628,0.420658115,0.436013766,0.323734119,FALSE,resources/alien1_norm.png,0.570239628,resources/alien2_norm.png,0.420658115,0.4463,alien1,TRUE,2,0.330134821,23,1,0.570239628,x,1.0839,,,,,,,,,,,,,,,,,,,,,,,,,,,,,,,,,
645197,2023-11-09_11h16.51.342,two_step_task_legacy,2022.2.4,Win32,60.37553583,11,learning,0,TRUE,TRUE,3,0.523475645,red,m,0,67,67,67,1,0.591449475,0.448762809,0.453792841,0.315556681,TRUE,resources/alien2_norm.png,0.448762809,resources/alien1_norm.png,0.591449475,0.2844,alien1,TRUE,2,0.186051367,24,1,0.591449475,m,0.4583,,,,,,,,,,,,,,,,,,,,,,,,,,,,,,,,,
645197,2023-11-09_11h16.51.342,two_step_task_legacy,2022.2.4,Win32,60.37553583,11,learning,0,TRUE,TRUE,3,0.242716845,red,m,0,68,68,68,1,0.563331053,0.474234796,0.441660247,0.298122992,FALSE,resources/alien1_norm.png,0.563331053,resources/alien2_norm.png,0.474234796,0.2735,alien1,TRUE,2,0.456704465,25,1,0.563331053,x,1.3215,,,,,,,,,,,,,,,,,,,,,,,,,,,,,,,,,
645197,2023-11-09_11h16.51.342,two_step_task_legacy,2022.2.4,Win32,60.37553583,11,learning,1,TRUE,TRUE,2,0.76166052,purple,m,0,69,69,69,1,0.563152249,0.437253036,0.404262068,0.291150742,FALSE,resources/alien3_norm.png,0.404262068,resources/alien4_norm.png,0.291150742,0.3397,alien4,TRUE,3,0.719612963,25,0,0.291150742,m,1.2202,,,,,,,,,,,,,,,,,,,,,,,,,,,,,,,,,
645197,2023-11-09_11h16.51.342,two_step_task_legacy,2022.2.4,Win32,60.37553583,11,learning,1,TRUE,TRUE,2,0.88444693,purple,m,0,70,70,70,1,0.552683953,0.464935753,0.444846811,0.309207509,FALSE,resources/alien3_norm.png,0.444846811,resources/alien4_norm.png,0.309207509,0.3681,alien3,TRUE,2,0.025508685,26,1,0.444846811,x,0.9513,,,,,,,,,,,,,,,,,,,,,,,,,,,,,,,,,
645197,2023-11-09_11h16.51.342,two_step_task_legacy,2022.2.4,Win32,60.37553583,11,learning,1,TRUE,TRUE,2,0.802396317,purple,m,0,71,71,71,1,0.533608205,0.481614969,0.463570435,0.323545862,FALSE,resources/alien3_norm.png,0.463570435,resources/alien4_norm.png,0.323545862,0.4835,alien3,TRUE,3,0.571551842,26,0,0.463570435,x,0.8995,,,,,,,,,,,,,,,,,,,,,,,,,,,,,,,,,
645197,2023-11-09_11h16.51.342,two_step_task_legacy,2022.2.4,Win32,60.37553583,11,learning,0,TRUE,TRUE,3,0.439053319,red,m,0,72,72,72,1,0.535548537,0.474561818,0.465009016,0.26823201,TRUE,resources/alien2_norm.png,0.474561818,resources/alien1_norm.png,0.535548537,0.3814,alien2,TRUE,3,0.922656781,26,0,0.474561818,x,0.8494,,,,,,,,,,,,,,,,,,,,,,,,,,,,,,,,,
645197,2023-11-09_11h16.51.342,two_step_task_legacy,2022.2.4,Win32,60.37553583,11,learning,0,TRUE,TRUE,3,0.315947986,red,m,0,73,73,73,1,0.542768918,0.440801261,0.436372984,0.260372941,TRUE,resources/alien2_norm.png,0.440801261,resources/alien1_norm.png,0.542768918,0.5551,alien1,TRUE,2,0.145227742,27,1,0.542768918,m,0.4674,,,,,,,,,,,,,,,,,,,,,,,,,,,,,,,,,
645197,2023-11-09_11h16.51.342,two_step_task_legacy,2022.2.4,Win32,60.37553583,11,learning,0,TRUE,TRUE,2,0.225615775,purple,x,0,74,74,74,1,0.560222004,0.423159054,0.458779651,0.260758683,FALSE,resources/alien3_norm.png,0.458779651,resources/alien4_norm.png,0.260758683,0.3045,alien3,TRUE,3,0.753509147,27,0,0.458779651,x,0.3081,,,,,,,,,,,,,,,,,,,,,,,,,,,,,,,,,
645197,2023-11-09_11h16.51.342,two_step_task_legacy,2022.2.4,Win32,60.37553583,11,learning,1,TRUE,TRUE,3,0.725438386,red,x,0,75,75,75,1,0.539174426,0.448163788,0.455266135,0.257379297,TRUE,resources/alien2_norm.png,0.448163788,resources/alien1_norm.png,0.539174426,0.2678,alien1,TRUE,2,0.531302922,28,1,0.539174426,m,0.2726,,,,,,,,,,,,,,,,,,,,,,,,,,,,,,,,,
645197,2023-11-09_11h16.51.342,two_step_task_legacy,2022.2.4,Win32,60.37553583,11,learning,0,TRUE,TRUE,3,0.306864798,red,m,0,76,76,76,1,0.537408479,0.478471932,0.420217761,0.270596693,TRUE,resources/alien2_norm.png,0.478471932,resources/alien1_norm.png,0.537408479,0.3699,alien2,TRUE,2,0.2733925,29,1,0.478471932,x,0.7544,,,,,,,,,,,,,,,,,,,,,,,,,,,,,,,,,
645197,2023-11-09_11h16.51.342,two_step_task_legacy,2022.2.4,Win32,60.37553583,11,learning,1,TRUE,TRUE,2,0.877779951,purple,m,0,77,77,77,1,0.512388297,0.457419685,0.409778881,0.277037121,FALSE,resources/alien3_norm.png,0.409778881,resources/alien4_norm.png,0.277037121,0.3061,none,FALSE,NA,,29,0,0.478471932,,,,,,,,,,,,,,,,,,,,,,,,,,,,,,,,,,,
645197,2023-11-09_11h16.51.342,two_step_task_legacy,2022.2.4,Win32,60.37553583,11,learning,0,TRUE,TRUE,3,0.522614971,red,m,0,78,78,78,1,0.489858931,0.466419283,0.372565236,0.270516911,FALSE,resources/alien1_norm.png,0.489858931,resources/alien2_norm.png,0.466419283,0.7844,alien2,TRUE,3,0.623275516,29,0,0.466419283,m,0.3888,,,,,,,,,,,,,,,,,,,,,,,,,,,,,,,,,
645197,2023-11-09_11h16.51.342,two_step_task_legacy,2022.2.4,Win32,60.37553583,11,learning,0,TRUE,TRUE,2,0.668617927,purple,x,0,79,79,79,1,0.540816343,0.466375344,0.390463231,0.262603515,TRUE,resources/alien4_norm.png,0.262603515,resources/alien3_norm.png,0.390463231,0.3814,alien4,TRUE,3,0.603257857,29,0,0.262603515,x,0.4248,,,,,,,,,,,,,,,,,,,,,,,,,,,,,,,,,
645197,2023-11-09_11h16.51.342,two_step_task_legacy,2022.2.4,Win32,60.37553583,11,learning,0,TRUE,TRUE,3,0.544430819,red,m,0,80,80,80,1,0.506499763,0.477354251,0.380539765,0.268738173,FALSE,resources/alien1_norm.png,0.506499763,resources/alien2_norm.png,0.477354251,0.2667,alien1,TRUE,2,0.077590228,30,1,0.506499763,x,0.5356,,,,,,,,,,,,,,,,,,,,,,,,,,,,,,,,,
645197,2023-11-09_11h16.51.342,two_step_task_legacy,2022.2.4,Win32,60.37553583,11,learning,0,TRUE,TRUE,3,0.482674943,red,m,0,81,81,81,1,0.509536953,0.486946319,0.37781899,0.278779841,FALSE,resources/alien1_norm.png,0.509536953,resources/alien2_norm.png,0.486946319,0.2876,alien1,TRUE,3,0.616168256,30,0,0.509536953,x,0.394,,,,,,,,,,,,,,,,,,,,,,,,,,,,,,,,,
645197,2023-11-09_11h16.51.342,two_step_task_legacy,2022.2.4,Win32,60.37553583,11,learning,0,TRUE,TRUE,3,0.685561095,red,m,0,82,82,82,1,0.474041688,0.530653946,0.392303267,0.287459421,TRUE,resources/alien2_norm.png,0.530653946,resources/alien1_norm.png,0.474041688,0.2627,alien2,TRUE,2,0.521077599,31,1,0.530653946,x,0.2822,,,,,,,,,,,,,,,,,,,,,,,,,,,,,,,,,
645197,2023-11-09_11h16.51.342,two_step_task_legacy,2022.2.4,Win32,60.37553583,11,learning,0,TRUE,TRUE,3,0.56930956,red,m,0,83,83,83,1,0.424967503,0.582042098,0.440685571,0.254140851,TRUE,resources/alien2_norm.png,0.582042098,resources/alien1_norm.png,0.424967503,0.2541,alien1,TRUE,2,0.164176851,32,1,0.424967503,m,0.3104,,,,,,,,,,,,,,,,,,,,,,,,,,,,,,,,,
645197,2023-11-09_11h16.51.342,two_step_task_legacy,2022.2.4,Win32,60.37553583,11,learning,0,TRUE,TRUE,3,0.433821777,red,m,0,84,84,84,1,0.397793995,0.603390008,0.426076015,0.254161277,FALSE,resources/alien1_norm.png,0.397793995,resources/alien2_norm.png,0.603390008,0.2669,alien1,TRUE,2,0.180279782,33,1,0.397793995,x,0.7898,,,,,,,,,,,,,,,,,,,,,,,,,,,,,,,,,
645197,2023-11-09_11h16.51.342,two_step_task_legacy,2022.2.4,Win32,60.37553583,11,learning,1,TRUE,TRUE,2,0.874584749,purple,m,0,85,85,85,1,0.353896535,0.591340821,0.412731233,0.287499545,FALSE,resources/alien3_norm.png,0.412731233,resources/alien4_norm.png,0.287499545,0.3145,alien3,TRUE,3,0.988689548,33,0,0.412731233,x,0.5116,,,,,,,,,,,,,,,,,,,,,,,,,,,,,,,,,
645197,2023-11-09_11h16.51.342,two_step_task_legacy,2022.2.4,Win32,60.37553583,11,learning,0,TRUE,TRUE,2,0.25759034,purple,x,0,86,86,86,1,0.37056204,0.589031784,0.405193684,0.329089706,TRUE,resources/alien4_norm.png,0.329089706,resources/alien3_norm.png,0.405193684,0.9622,alien3,TRUE,3,0.415216784,33,0,0.405193684,m,0.6237,,,,,,,,,,,,,,,,,,,,,,,,,,,,,,,,,
645197,2023-11-09_11h16.51.342,two_step_task_legacy,2022.2.4,Win32,60.37553583,11,learning,0,TRUE,TRUE,3,0.40692118,red,m,0,87,87,87,1,0.392392507,0.580656964,0.415436249,0.298753594,FALSE,resources/alien1_norm.png,0.392392507,resources/alien2_norm.png,0.580656964,1.4625,alien1,TRUE,2,0.362412616,34,1,0.392392507,x,0.6982,,,,,,,,,,,,,,,,,,,,,,,,,,,,,,,,,
645197,2023-11-09_11h16.51.342,two_step_task_legacy,2022.2.4,Win32,60.37553583,11,learning,0,TRUE,TRUE,3,0.113421817,red,m,0,88,88,88,1,0.430938527,0.589667006,0.395801273,0.35786834,FALSE,resources/alien1_norm.png,0.430938527,resources/alien2_norm.png,0.589667006,0.3946,alien1,TRUE,3,0.631964311,34,0,0.430938527,x,0.5167,,,,,,,,,,,,,,,,,,,,,,,,,,,,,,,,,
645197,2023-11-09_11h16.51.342,two_step_task_legacy,2022.2.4,Win32,60.37553583,11,learning,0,TRUE,TRUE,3,0.28510415,red,m,0,89,89,89,1,0.425500089,0.585241124,0.381916612,0.370932323,FALSE,resources/alien1_norm.png,0.425500089,resources/alien2_norm.png,0.585241124,0.3841,alien2,TRUE,2,0.09726023,35,1,0.585241124,m,0.3966,,,,,,,,,,,,,,,,,,,,,,,,,,,,,,,,,
645197,2023-11-09_11h16.51.342,two_step_task_legacy,2022.2.4,Win32,60.37553583,11,learning,0,TRUE,TRUE,2,0.256235131,purple,x,0,90,90,90,1,0.429761836,0.586839223,0.388688958,0.37105745,TRUE,resources/alien4_norm.png,0.37105745,resources/alien3_norm.png,0.388688958,0.8108,alien4,TRUE,3,0.672159071,35,0,0.37105745,x,0.846,,,,,,,,,,,,,,,,,,,,,,,,,,,,,,,,,
645197,2023-11-09_11h16.51.342,two_step_task_legacy,2022.2.4,Win32,60.37553583,11,learning,0,TRUE,TRUE,2,0.047101841,purple,x,0,91,91,91,1,0.43208582,0.559902226,0.372095661,0.348228929,TRUE,resources/alien4_norm.png,0.348228929,resources/alien3_norm.png,0.372095661,0.4166,alien4,TRUE,3,0.772492337,35,0,0.348228929,x,1.2906,,,,,,,,,,,,,,,,,,,,,,,,,,,,,,,,,
645197,2023-11-09_11h16.51.342,two_step_task_legacy,2022.2.4,Win32,60.37553583,11,learning,0,TRUE,TRUE,3,0.23728239,red,m,0,92,92,92,1,0.461985946,0.558620764,0.375940415,0.325999614,FALSE,resources/alien1_norm.png,0.461985946,resources/alien2_norm.png,0.558620764,0.4043,alien1,TRUE,3,0.76410952,35,0,0.461985946,x,0.8216,,,,,,,,,,,,,,,,,,,,,,,,,,,,,,,,,
645197,2023-11-09_11h16.51.342,two_step_task_legacy,2022.2.4,Win32,60.37553583,11,learning,0,TRUE,TRUE,3,0.19796238,red,m,0,93,93,93,1,0.474247227,0.550374425,0.381640589,0.332279798,TRUE,resources/alien2_norm.png,0.550374425,resources/alien1_norm.png,0.474247227,1.6771,alien1,TRUE,3,0.67401032,35,0,0.474247227,m,1.0213,,,,,,,,,,,,,,,,,,,,,,,,,,,,,,,,,
645197,2023-11-09_11h16.51.342,two_step_task_legacy,2022.2.4,Win32,60.37553583,11,learning,0,TRUE,TRUE,2,0.640473395,purple,x,0,94,94,94,1,0.461705647,0.55027378,0.396206696,0.349684918,FALSE,resources/alien3_norm.png,0.396206696,resources/alien4_norm.png,0.349684918,2.0677,alien3,TRUE,3,0.663623411,35,0,0.396206696,x,1.2726,,,,,,,,,,,,,,,,,,,,,,,,,,,,,,,,,
645197,2023-11-09_11h16.51.342,two_step_task_legacy,2022.2.4,Win32,60.37553583,11,learning,0,TRUE,TRUE,3,0.404588154,red,m,0,95,95,95,1,0.416984428,0.598369056,0.38053924,0.354236965,FALSE,resources/alien1_norm.png,0.416984428,resources/alien2_norm.png,0.598369056,0.5555,alien2,TRUE,2,0.427217679,36,1,0.598369056,m,0.7088,,,,,,,,,,,,,,,,,,,,,,,,,,,,,,,,,
645197,2023-11-09_11h16.51.342,two_step_task_legacy,2022.2.4,Win32,60.37553583,11,learning,1,TRUE,TRUE,2,0.763265465,purple,m,0,96,96,96,1,0.407761739,0.609173656,0.428114694,0.407247632,FALSE,resources/alien3_norm.png,0.428114694,resources/alien4_norm.png,0.407247632,0.3174,alien4,TRUE,3,0.758472135,36,0,0.407247632,m,2.3405,,,,,,,,,,,,,,,,,,,,,,,,,,,,,,,,,
645197,2023-11-09_11h16.51.342,two_step_task_legacy,2022.2.4,Win32,60.37553583,11,learning,1,TRUE,TRUE,2,0.946350688,purple,m,0,97,97,97,1,0.409341462,0.572817306,0.436490439,0.380856422,TRUE,resources/alien4_norm.png,0.380856422,resources/alien3_norm.png,0.436490439,0.4221,alien3,TRUE,2,0.124089859,37,1,0.436490439,m,0.7359,,,,,,,,,,,,,,,,,,,,,,,,,,,,,,,,,
645197,2023-11-09_11h16.51.342,two_step_task_legacy,2022.2.4,Win32,60.37553583,11,learning,0,TRUE,TRUE,3,0.544108319,red,m,0,98,98,98,1,0.448797335,0.581511113,0.448093405,0.349942531,TRUE,resources/alien2_norm.png,0.581511113,resources/alien1_norm.png,0.448797335,1.3881,alien1,TRUE,3,0.525839576,37,0,0.448797335,m,0.9027,,,,,,,,,,,,,,,,,,,,,,,,,,,,,,,,,
645197,2023-11-09_11h16.51.342,two_step_task_legacy,2022.2.4,Win32,60.37553583,11,learning,0,TRUE,TRUE,3,0.065429224,red,m,0,99,99,99,1,0.42387903,0.567760205,0.482171592,0.400056614,TRUE,resources/alien2_norm.png,0.567760205,resources/alien1_norm.png,0.42387903,0.3008,alien2,TRUE,2,0.513790856,38,1,0.567760205,x,0.9715,,,,,,,,,,,,,,,,,,,,,,,,,,,,,,,,,
645197,2023-11-09_11h16.51.342,two_step_task_legacy,2022.2.4,Win32,60.37553583,11,learning,1,TRUE,TRUE,2,0.700866714,purple,m,0,100,100,100,1,0.412420681,0.563890316,0.46141079,0.415091917,TRUE,resources/alien4_norm.png,0.415091917,resources/alien3_norm.png,0.46141079,0.3208,alien4,TRUE,3,0.763383817,38,0,0.415091917,x,2.249,,,,,,,,,,,,,,,,,,,,,,,,,,,,,,,,,
645197,2023-11-09_11h16.51.342,two_step_task_legacy,2022.2.4,Win32,60.37553583,11,learning,1,TRUE,TRUE,2,0.754557599,purple,m,0,101,101,101,1,0.409728183,0.600035433,0.41992287,0.420370004,TRUE,resources/alien4_norm.png,0.420370004,resources/alien3_norm.png,0.41992287,0.3894,alien3,TRUE,3,0.803671099,38,0,0.41992287,m,0.6166,,,,,,,,,,,,,,,,,,,,,,,,,,,,,,,,,
645197,2023-11-09_11h16.51.342,two_step_task_legacy,2022.2.4,Win32,60.37553583,11,learning,0,TRUE,TRUE,2,0.034868958,purple,x,0,102,102,102,1,0.470023162,0.598082931,0.421461486,0.407756446,FALSE,resources/alien3_norm.png,0.421461486,resources/alien4_norm.png,0.407756446,0.4453,alien4,TRUE,2,0.095710023,39,1,0.407756446,m,0.7774,,,,,,,,,,,,,,,,,,,,,,,,,,,,,,,,,
645197,2023-11-09_11h16.51.342,two_step_task_legacy,2022.2.4,Win32,60.37553583,11,learning,1,TRUE,TRUE,2,0.799469097,purple,m,0,103,103,103,1,0.43789257,0.606396931,0.412157498,0.39986788,FALSE,resources/alien3_norm.png,0.412157498,resources/alien4_norm.png,0.39986788,0.3488,alien4,TRUE,2,0.010869603,40,1,0.39986788,m,1.5739,,,,,,,,,,,,,,,,,,,,,,,,,,,,,,,,,
645197,2023-11-09_11h16.51.342,two_step_task_legacy,2022.2.4,Win32,60.37553583,11,learning,0,TRUE,TRUE,3,0.638533285,red,m,0,104,104,104,1,0.475073433,0.600008534,0.383872268,0.425433133,FALSE,resources/alien1_norm.png,0.475073433,resources/alien2_norm.png,0.600008534,0.665,alien2,TRUE,3,0.996452972,40,0,0.600008534,m,1.2628,,,,,,,,,,,,,,,,,,,,,,,,,,,,,,,,,
645197,2023-11-09_11h16.51.342,two_step_task_legacy,2022.2.4,Win32,60.37553583,11,learning,0,TRUE,TRUE,3,0.632379173,red,m,0,105,105,105,1,0.459455836,0.621019516,0.369077296,0.416159119,TRUE,resources/alien2_norm.png,0.621019516,resources/alien1_norm.png,0.459455836,0.2645,alien1,TRUE,2,0.103171619,41,1,0.459455836,m,0.9854,,,,,,,,,,,,,,,,,,,,,,,,,,,,,,,,,
645197,2023-11-09_11h16.51.342,two_step_task_legacy,2022.2.4,Win32,60.37553583,11,learning,0,TRUE,TRUE,3,0.075369675,red,m,0,106,106,106,1,0.439265695,0.612005637,0.370186364,0.426891694,FALSE,resources/alien1_norm.png,0.439265695,resources/alien2_norm.png,0.612005637,1.0271,alien1,TRUE,2,0.408580229,42,1,0.439265695,x,0.5678,,,,,,,,,,,,,,,,,,,,,,,,,,,,,,,,,
645197,2023-11-09_11h16.51.342,two_step_task_legacy,2022.2.4,Win32,60.37553583,11,learning,0,TRUE,TRUE,3,0.204042353,red,m,0,107,107,107,1,0.416861628,0.613214029,0.403070205,0.443933115,FALSE,resources/alien1_norm.png,0.416861628,resources/alien2_norm.png,0.613214029,0.4129,alien1,TRUE,3,0.437623402,42,0,0.416861628,x,0.9148,,,,,,,,,,,,,,,,,,,,,,,,,,,,,,,,,
645197,2023-11-09_11h16.51.342,two_step_task_legacy,2022.2.4,Win32,60.37553583,11,learning,0,TRUE,TRUE,3,0.007784876,red,m,0,108,108,108,1,0.370312188,0.630447984,0.4123455,0.404109598,FALSE,resources/alien1_norm.png,0.370312188,resources/alien2_norm.png,0.630447984,0.2832,alien2,TRUE,2,0.32417442,43,1,0.630447984,m,0.3702,,,,,,,,,,,,,,,,,,,,,,,,,,,,,,,,,
645197,2023-11-09_11h16.51.342,two_step_task_legacy,2022.2.4,Win32,60.37553583,11,learning,0,TRUE,TRUE,3,0.495390437,red,m,0,109,109,109,1,0.397578743,0.640961938,0.424317647,0.39028751,TRUE,resources/alien2_norm.png,0.640961938,resources/alien1_norm.png,0.397578743,0.3004,alien2,TRUE,2,0.606947984,44,1,0.640961938,x,0.9329,,,,,,,,,,,,,,,,,,,,,,,,,,,,,,,,,
645197,2023-11-09_11h16.51.342,two_step_task_legacy,2022.2.4,Win32,60.37553583,11,learning,0,TRUE,TRUE,3,0.250217038,red,m,0,110,110,110,1,0.382105981,0.616897372,0.442095075,0.412876683,FALSE,resources/alien1_norm.png,0.382105981,resources/alien2_norm.png,0.616897372,0.4009,alien2,TRUE,2,0.144943713,45,1,0.616897372,m,0.2873,,,,,,,,,,,,,,,,,,,,,,,,,,,,,,,,,
645197,2023-11-09_11h16.51.342,two_step_task_legacy,2022.2.4,Win32,60.37553583,11,learning,1,TRUE,TRUE,2,0.958729811,purple,m,0,111,111,111,1,0.384277465,0.604947349,0.431070335,0.374497877,FALSE,resources/alien3_norm.png,0.431070335,resources/alien4_norm.png,0.374497877,0.2853,alien3,TRUE,3,0.444345311,45,0,0.431070335,x,2.1575,,,,,,,,,,,,,,,,,,,,,,,,,,,,,,,,,
645197,2023-11-09_11h16.51.342,two_step_task_legacy,2022.2.4,Win32,60.37553583,11,learning,0,TRUE,TRUE,2,0.029730381,purple,x,0,112,112,112,1,0.386075218,0.619040452,0.440914329,0.389385149,FALSE,resources/alien3_norm.png,0.440914329,resources/alien4_norm.png,0.389385149,0.6231,alien4,TRUE,2,0.349714063,46,1,0.389385149,m,0.3336,,,,,,,,,,,,,,,,,,,,,,,,,,,,,,,,,
645197,2023-11-09_11h16.51.342,two_step_task_legacy,2022.2.4,Win32,60.37553583,11,learning,1,TRUE,TRUE,3,0.909334506,red,x,0,113,113,113,1,0.360923619,0.648065033,0.481862535,0.41941802,FALSE,resources/alien1_norm.png,0.360923619,resources/alien2_norm.png,0.648065033,0.3341,alien1,TRUE,3,0.951170118,46,0,0.360923619,x,1.062,,,,,,,,,,,,,,,,,,,,,,,,,,,,,,,,,
645197,2023-11-09_11h16.51.342,two_step_task_legacy,2022.2.4,Win32,60.37553583,11,learning,1,TRUE,TRUE,2,0.785309413,purple,m,0,114,114,114,1,0.32290404,0.673813539,0.49267225,0.440586974,FALSE,resources/alien3_norm.png,0.49267225,resources/alien4_norm.png,0.440586974,0.2901,alien3,TRUE,3,0.752582428,46,0,0.49267225,x,1.8132,,,,,,,,,,,,,,,,,,,,,,,,,,,,,,,,,
645197,2023-11-09_11h16.51.342,two_step_task_legacy,2022.2.4,Win32,60.37553583,11,learning,0,TRUE,TRUE,2,0.607661435,purple,x,0,115,115,115,1,0.323455644,0.710523316,0.509836388,0.461677665,FALSE,resources/alien3_norm.png,0.509836388,resources/alien4_norm.png,0.461677665,0.3357,alien4,TRUE,2,0.459129594,47,1,0.461677665,m,0.3357,,,,,,,,,,,,,,,,,,,,,,,,,,,,,,,,,
645197,2023-11-09_11h16.51.342,two_step_task_legacy,2022.2.4,Win32,60.37553583,11,learning,0,TRUE,TRUE,3,0.151406143,red,m,0,116,116,116,1,0.342298796,0.71345274,0.439463659,0.478781129,FALSE,resources/alien1_norm.png,0.342298796,resources/alien2_norm.png,0.71345274,0.923,alien1,TRUE,3,0.762218662,47,0,0.342298796,x,0.4053,,,,,,,,,,,,,,,,,,,,,,,,,,,,,,,,,
645197,2023-11-09_11h16.51.342,two_step_task_legacy,2022.2.4,Win32,60.37553583,11,learning,0,TRUE,TRUE,3,0.647824675,red,m,0,117,117,117,1,0.334859228,0.720890484,0.417535164,0.445291487,FALSE,resources/alien1_norm.png,0.334859228,resources/alien2_norm.png,0.720890484,0.5802,alien2,TRUE,3,0.894266666,47,0,0.720890484,m,0.5272,,,,,,,,,,,,,,,,,,,,,,,,,,,,,,,,,
645197,2023-11-09_11h16.51.342,two_step_task_legacy,2022.2.4,Win32,60.37553583,11,learning,1,TRUE,TRUE,3,0.981554476,red,x,0,118,118,118,1,0.306028049,0.72441163,0.388471429,0.461420132,FALSE,resources/alien1_norm.png,0.306028049,resources/alien2_norm.png,0.72441163,0.4746,alien2,TRUE,2,0.187388681,48,1,0.72441163,m,1.2885,,,,,,,,,,,,,,,,,,,,,,,,,,,,,,,,,
645197,2023-11-09_11h16.51.342,two_step_task_legacy,2022.2.4,Win32,60.37553583,11,learning,1,TRUE,TRUE,2,0.932608751,purple,m,0,119,119,119,1,0.331712501,0.700852841,0.441704145,0.491748934,TRUE,resources/alien4_norm.png,0.491748934,resources/alien3_norm.png,0.441704145,0.4583,alien4,TRUE,2,0.36139424,49,1,0.491748934,x,1.4084,,,,,,,,,,,,,,,,,,,,,,,,,,,,,,,,,
645197,2023-11-09_11h16.51.342,two_step_task_legacy,2022.2.4,Win32,60.37553583,11,learning,0,TRUE,TRUE,2,0.131181547,purple,x,0,120,120,120,1,0.32951786,0.706027338,0.427665055,0.475337246,FALSE,resources/alien3_norm.png,0.427665055,resources/alien4_norm.png,0.475337246,0.2855,alien3,TRUE,2,0.044145758,50,1,0.427665055,x,0.8949,,,,,,,,,,,,,,,,,,,,,,,,,,,,,,,,,
645197,2023-11-09_11h16.51.342,two_step_task_legacy,2022.2.4,Win32,60.37553583,11,learning,0,TRUE,TRUE,3,0.483166733,red,m,0,121,121,121,1,0.330261592,0.737341807,0.424883353,0.509069185,TRUE,resources/alien2_norm.png,0.737341807,resources/alien1_norm.png,0.330261592,0.977,alien2,TRUE,2,0.602664342,51,1,0.737341807,x,0.6742,,,,,,,,,,,,,,,,,,,,,,,,,,,,,,,,,
645197,2023-11-09_11h16.51.342,two_step_task_legacy,2022.2.4,Win32,60.37553583,11,learning,0,TRUE,TRUE,2,0.219627243,purple,x,0,122,122,122,1,0.344846278,0.73276884,0.372565975,0.507675589,TRUE,resources/alien4_norm.png,0.507675589,resources/alien3_norm.png,0.372565975,0.44,alien4,TRUE,2,0.182895011,52,1,0.507675589,x,0.4804,,,,,,,,,,,,,,,,,,,,,,,,,,,,,,,,,
645197,2023-11-09_11h16.51.342,two_step_task_legacy,2022.2.4,Win32,60.37553583,11,learning,0,TRUE,TRUE,2,0.112982993,purple,x,0,123,123,123,1,0.301180071,0.732502141,0.417529896,0.517036319,TRUE,resources/alien4_norm.png,0.517036319,resources/alien3_norm.png,0.417529896,0.3692,alien4,TRUE,2,0.089050787,53,1,0.517036319,x,0.3999,,,,,,,,,,,,,,,,,,,,,,,,,,,,,,,,,
645197,2023-11-09_11h16.51.342,two_step_task_legacy,2022.2.4,Win32,60.37553583,11,learning,1,TRUE,TRUE,3,0.906540738,red,x,0,124,124,124,1,0.302511879,0.685332928,0.42173742,0.511184893,TRUE,resources/alien2_norm.png,0.685332928,resources/alien1_norm.png,0.302511879,0.2533,alien2,TRUE,2,0.131409272,54,1,0.685332928,x,1.2151,,,,,,,,,,,,,,,,,,,,,,,,,,,,,,,,,
645197,2023-11-09_11h16.51.342,two_step_task_legacy,2022.2.4,Win32,60.37553583,11,learning,1,TRUE,TRUE,3,0.854260215,red,x,0,125,125,125,1,0.285413018,0.625335705,0.393240926,0.566242911,FALSE,resources/alien1_norm.png,0.285413018,resources/alien2_norm.png,0.625335705,0.2831,alien2,TRUE,2,0.369246918,55,1,0.625335705,m,0.6043,,,,,,,,,,,,,,,,,,,,,,,,,,,,,,,,,
645197,2023-11-09_11h16.51.342,two_step_task_legacy,2022.2.4,Win32,60.37553583,11,learning,0,TRUE,TRUE,3,0.526178123,red,m,0,126,126,126,1,0.292942249,0.66920814,0.39388883,0.552018895,TRUE,resources/alien2_norm.png,0.66920814,resources/alien1_norm.png,0.292942249,0.2389,alien2,TRUE,2,0.028022989,56,1,0.66920814,x,0.6737,,,,,,,,,,,,,,,,,,,,,,,,,,,,,,,,,
645197,2023-11-09_11h16.51.342,two_step_task_legacy,2022.2.4,Win32,60.37553583,11,learning,0,TRUE,TRUE,3,0.486792801,red,m,0,127,127,127,1,0.297873079,0.739663062,0.430413644,0.566008228,FALSE,resources/alien1_norm.png,0.297873079,resources/alien2_norm.png,0.739663062,0.2549,alien2,TRUE,3,0.910610863,56,0,0.739663062,m,0.5874,,,,,,,,,,,,,,,,,,,,,,,,,,,,,,,,,
645197,2023-11-09_11h16.51.342,two_step_task_legacy,2022.2.4,Win32,60.37553583,11,learning,1,TRUE,TRUE,3,0.74160244,red,x,0,128,128,128,1,0.322041132,0.741610207,0.420023625,0.56929572,TRUE,resources/alien2_norm.png,0.741610207,resources/alien1_norm.png,0.322041132,0.2702,alien2,TRUE,2,0.199809004,57,1,0.741610207,x,0.5354,,,,,,,,,,,,,,,,,,,,,,,,,,,,,,,,,
645197,2023-11-09_11h16.51.342,two_step_task_legacy,2022.2.4,Win32,60.37553583,11,learning,1,TRUE,TRUE,2,0.838353317,purple,m,0,129,129,129,1,0.300972771,0.702201765,0.449769214,0.563348669,FALSE,resources/alien3_norm.png,0.449769214,resources/alien4_norm.png,0.563348669,0.2513,alien4,TRUE,2,0.050568928,58,1,0.563348669,m,0.6825,,,,,,,,,,,,,,,,,,,,,,,,,,,,,,,,,
645197,2023-11-09_11h16.51.342,two_step_task_legacy,2022.2.4,Win32,60.37553583,11,learning,0,TRUE,TRUE,2,0.310454676,purple,x,0,130,130,130,1,0.309394882,0.682168877,0.476905855,0.543372453,TRUE,resources/alien4_norm.png,0.543372453,resources/alien3_norm.png,0.476905855,0.245,alien4,TRUE,2,0.292826657,59,1,0.543372453,x,0.6167,,,,,,,,,,,,,,,,,,,,,,,,,,,,,,,,,
645197,2023-11-09_11h16.51.342,two_step_task_legacy,2022.2.4,Win32,60.37553583,11,learning,0,TRUE,TRUE,3,0.418705277,red,m,0,131,131,131,1,0.304060393,0.667549921,0.481826843,0.535502227,TRUE,resources/alien2_norm.png,0.667549921,resources/alien1_norm.png,0.304060393,0.2629,alien2,TRUE,3,0.711735915,59,0,0.667549921,x,0.5547,,,,,,,,,,,,,,,,,,,,,,,,,,,,,,,,,
645197,2023-11-09_11h16.51.342,two_step_task_legacy,2022.2.4,Win32,60.37553583,11,learning,1,TRUE,TRUE,2,0.939488432,purple,m,0,132,132,132,1,0.312140737,0.694841666,0.47286744,0.542899405,TRUE,resources/alien4_norm.png,0.542899405,resources/alien3_norm.png,0.47286744,0.3906,alien4,TRUE,2,0.344842423,60,1,0.542899405,x,1.404,,,,,,,,,,,,,,,,,,,,,,,,,,,,,,,,,
645197,2023-11-09_11h16.51.342,two_step_task_legacy,2022.2.4,Win32,60.37553583,11,learning,1,TRUE,TRUE,2,0.836090393,purple,m,0,133,133,133,1,0.334362108,0.707468685,0.500552221,0.525972175,FALSE,resources/alien3_norm.png,0.500552221,resources/alien4_norm.png,0.525972175,0.3949,alien4,TRUE,3,0.644458195,60,0,0.525972175,m,0.5905,,,,,,,,,,,,,,,,,,,,,,,,,,,,,,,,,
645197,2023-11-09_11h16.51.342,two_step_task_legacy,2022.2.4,Win32,60.37553583,11,learning,0,TRUE,TRUE,3,0.098066976,red,m,0,134,134,134,1,0.312840567,0.729767243,0.485572466,0.503581213,TRUE,resources/alien2_norm.png,0.729767243,resources/alien1_norm.png,0.312840567,0.2785,alien1,TRUE,2,0.057090843,61,1,0.312840567,m,0.9444,,,,,,,,,,,,,,,,,,,,,,,,,,,,,,,,,
645197,2023-11-09_11h16.51.342,two_step_task_legacy,2022.2.4,Win32,60.37553583,11,learning,1,TRUE,TRUE,2,0.943869579,purple,m,0,135,135,135,1,0.312825098,0.743400172,0.466999856,0.5115277,TRUE,resources/alien4_norm.png,0.5115277,resources/alien3_norm.png,0.466999856,0.2622,alien4,TRUE,3,0.761511951,61,0,0.5115277,x,0.9296,,,,,,,,,,,,,,,,,,,,,,,,,,,,,,,,,
645197,2023-11-09_11h16.51.342,two_step_task_legacy,2022.2.4,Win32,60.37553583,11,learning,1,TRUE,TRUE,2,0.723784273,purple,m,0,136,136,136,1,0.342196198,0.734901943,0.464677105,0.536755588,FALSE,resources/alien3_norm.png,0.464677105,resources/alien4_norm.png,0.536755588,0.3709,alien4,TRUE,2,0.271006733,62,1,0.536755588,m,0.5512,,,,,,,,,,,,,,,,,,,,,,,,,,,,,,,,,
645197,2023-11-09_11h16.51.342,two_step_task_legacy,2022.2.4,Win32,60.37553583,11,learning,0,TRUE,TRUE,2,0.035539026,purple,x,0,137,137,137,1,0.368861684,0.747011609,0.49321831,0.494444841,FALSE,resources/alien3_norm.png,0.49321831,resources/alien4_norm.png,0.494444841,0.3771,alien4,TRUE,3,0.873900244,62,0,0.494444841,m,1.5183,,,,,,,,,,,,,,,,,,,,,,,,,,,,,,,,,
645197,2023-11-09_11h16.51.342,two_step_task_legacy,2022.2.4,Win32,60.37553583,11,learning,0,TRUE,TRUE,3,0.488694986,red,m,0,138,138,138,1,0.406866843,0.697212233,0.476455124,0.495924537,TRUE,resources/alien2_norm.png,0.697212233,resources/alien1_norm.png,0.406866843,0.3456,alien2,TRUE,3,0.92735187,62,0,0.697212233,x,0.7703,,,,,,,,,,,,,,,,,,,,,,,,,,,,,,,,,
645197,2023-11-09_11h16.51.342,two_step_task_legacy,2022.2.4,Win32,60.37553583,11,learning,0,TRUE,TRUE,3,0.618676431,red,m,0,139,139,139,1,0.397205352,0.680972767,0.492237558,0.482705961,FALSE,resources/alien1_norm.png,0.397205352,resources/alien2_norm.png,0.680972767,0.5509,alien1,TRUE,3,0.407041086,62,0,0.397205352,x,0.4894,,,,,,,,,,,,,,,,,,,,,,,,,,,,,,,,,
645197,2023-11-09_11h16.51.342,two_step_task_legacy,2022.2.4,Win32,60.37553583,11,learning,0,TRUE,TRUE,3,0.691562567,red,m,0,140,140,140,1,0.425269322,0.71001807,0.477118095,0.476273355,TRUE,resources/alien2_norm.png,0.71001807,resources/alien1_norm.png,0.425269322,0.3946,alien2,TRUE,2,0.488969641,63,1,0.71001807,x,0.5702,,,,,,,,,,,,,,,,,,,,,,,,,,,,,,,,,
645197,2023-11-09_11h16.51.342,two_step_task_legacy,2022.2.4,Win32,60.37553583,11,learning,1,TRUE,TRUE,3,0.84494842,red,x,0,141,141,141,1,0.44999939,0.707254196,0.53376836,0.506334783,FALSE,resources/alien1_norm.png,0.44999939,resources/alien2_norm.png,0.707254196,0.5577,alien2,TRUE,2,0.267539368,64,1,0.707254196,m,0.9248,,,,,,,,,,,,,,,,,,,,,,,,,,,,,,,,,
645197,2023-11-09_11h16.51.342,two_step_task_legacy,2022.2.4,Win32,60.37553583,11,learning,0,TRUE,TRUE,3,0.593328005,red,m,0,142,142,142,1,0.45857487,0.713900156,0.530369859,0.488537075,FALSE,resources/alien1_norm.png,0.45857487,resources/alien2_norm.png,0.713900156,0.2461,alien2,TRUE,2,0.241822831,65,1,0.713900156,m,0.4108,,,,,,,,,,,,,,,,,,,,,,,,,,,,,,,,,
645197,2023-11-09_11h16.51.342,two_step_task_legacy,2022.2.4,Win32,60.37553583,11,learning,0,TRUE,TRUE,3,0.108086788,red,m,0,143,143,143,1,0.438181608,0.736832649,0.539460609,0.474258385,TRUE,resources/alien2_norm.png,0.736832649,resources/alien1_norm.png,0.438181608,0.2684,alien2,TRUE,3,0.929406619,65,0,0.736832649,x,0.5384,,,,,,,,,,,,,,,,,,,,,,,,,,,,,,,,,
645197,2023-11-09_11h16.51.342,two_step_task_legacy,2022.2.4,Win32,60.37553583,11,learning,0,TRUE,TRUE,3,0.143474558,red,m,0,144,144,144,1,0.387458235,0.724637397,0.55840292,0.452808468,FALSE,resources/alien1_norm.png,0.387458235,resources/alien2_norm.png,0.724637397,0.3102,alien2,TRUE,2,0.365447114,66,1,0.724637397,m,0.4329,,,,,,,,,,,,,,,,,,,,,,,,,,,,,,,,,
645197,2023-11-09_11h16.51.342,two_step_task_legacy,2022.2.4,Win32,60.37553583,11,learning,0,TRUE,TRUE,3,0.504588243,red,m,0,145,145,145,1,0.404254171,0.743825326,0.616412204,0.486213014,TRUE,resources/alien2_norm.png,0.743825326,resources/alien1_norm.png,0.404254171,0.2615,alien1,TRUE,3,0.594744476,66,0,0.404254171,m,0.3173,,,,,,,,,,,,,,,,,,,,,,,,,,,,,,,,,
645197,2023-11-09_11h16.51.342,two_step_task_legacy,2022.2.4,Win32,60.37553583,11,learning,1,TRUE,TRUE,2,0.908665651,purple,m,0,146,146,146,1,0.367820523,0.710524321,0.615240174,0.484730978,FALSE,resources/alien3_norm.png,0.615240174,resources/alien4_norm.png,0.484730978,0.2769,alien4,TRUE,3,0.944004119,66,0,0.484730978,m,1.1873,,,,,,,,,,,,,,,,,,,,,,,,,,,,,,,,,
645197,2023-11-09_11h16.51.342,two_step_task_legacy,2022.2.4,Win32,60.37553583,11,learning,1,TRUE,TRUE,2,0.86586568,purple,m,0,147,147,147,1,0.362321577,0.70157983,0.581764054,0.430151332,TRUE,resources/alien4_norm.png,0.430151332,resources/alien3_norm.png,0.581764054,0.3482,alien4,TRUE,3,0.829384562,66,0,0.430151332,x,0.7361,,,,,,,,,,,,,,,,,,,,,,,,,,,,,,,,,
645197,2023-11-09_11h16.51.342,two_step_task_legacy,2022.2.4,Win32,60.37553583,11,learning,0,TRUE,TRUE,2,0.511889642,purple,x,0,148,148,148,1,0.302379389,0.735653625,0.576437376,0.425785354,TRUE,resources/alien4_norm.png,0.425785354,resources/alien3_norm.png,0.576437376,0.4895,alien4,TRUE,3,0.55897234,66,0,0.425785354,x,0.8672,,,,,,,,,,,,,,,,,,,,,,,,,,,,,,,,,
645197,2023-11-09_11h16.51.342,two_step_task_legacy,2022.2.4,Win32,60.37553583,11,learning,1,TRUE,TRUE,2,0.894798268,purple,m,0,149,149,149,1,0.326468766,0.701760343,0.598082344,0.396012467,FALSE,resources/alien3_norm.png,0.598082344,resources/alien4_norm.png,0.396012467,0.6291,alien3,TRUE,2,0.104646974,67,1,0.598082344,x,0.8787,,,,,,,,,,,,,,,,,,,,,,,,,,,,,,,,,
645197,2023-11-09_11h16.51.342,two_step_task_legacy,2022.2.4,Win32,60.37553583,11,learning,1,TRUE,TRUE,2,0.719393883,purple,m,0,150,150,150,1,0.3,0.7,0.6,0.4,TRUE,resources/alien4_norm.png,0.4,resources/alien3_norm.png,0.6,0.7061,alien4,TRUE,3,0.934882796,67,0,0.4,x,0.7113,,,,,,,,,,,,,,,,,,,,,,,,,,,,,,,,,
645197,2023-11-09_11h16.51.342,two_step_task_legacy,2022.2.4,Win32,60.37553583,11,learning,1,TRUE,TRUE,3,0.769987294,red,x,0,151,151,151,1,0.3,0.7,0.6,0.4,TRUE,resources/alien2_norm.png,0.7,resources/alien1_norm.png,0.3,0.3207,alien2,TRUE,2,0.527815303,68,1,0.7,x,0.6168,,,,,,,,,,,,,,,,,,,,,,,,,,,,,,,,,
645197,2023-11-09_11h16.51.342,two_step_task_legacy,2022.2.4,Win32,60.37553583,11,learning,1,TRUE,TRUE,2,0.989181846,purple,m,0,152,152,152,1,0.3,0.7,0.6,0.4,TRUE,resources/alien4_norm.png,0.4,resources/alien3_norm.png,0.6,1.877,alien3,TRUE,2,0.433127771,69,1,0.6,m,1.0905,,,,,,,,,,,,,,,,,,,,,,,,,,,,,,,,,
645197,2023-11-09_11h16.51.342,two_step_task_legacy,2022.2.4,Win32,60.37553583,11,learning,0,TRUE,TRUE,3,0.039832425,red,m,0,153,153,153,1,0.3,0.7,0.6,0.4,TRUE,resources/alien2_norm.png,0.7,resources/alien1_norm.png,0.3,0.9643,alien2,TRUE,3,0.999157263,69,0,0.7,x,1.0837,,,,,,,,,,,,,,,,,,,,,,,,,,,,,,,,,
645197,2023-11-09_11h16.51.342,two_step_task_legacy,2022.2.4,Win32,60.37553583,11,learning,1,TRUE,TRUE,3,0.757298971,red,x,0,154,154,154,1,0.3,0.7,0.6,0.4,FALSE,resources/alien1_norm.png,0.3,resources/alien2_norm.png,0.7,1.2215,alien2,TRUE,2,0.340251375,70,1,0.7,m,0.762,,,,,,,,,,,,,,,,,,,,,,,,,,,,,,,,,
645197,2023-11-09_11h16.51.342,two_step_task_legacy,2022.2.4,Win32,60.37553583,11,learning,0,TRUE,TRUE,3,0.662413031,red,m,0,155,155,155,1,0.3,0.7,0.6,0.4,TRUE,resources/alien2_norm.png,0.7,resources/alien1_norm.png,0.3,1.0631,alien2,TRUE,2,0.698762214,71,1,0.7,x,1.8294,,,,,,,,,,,,,,,,,,,,,,,,,,,,,,,,,
645197,2023-11-09_11h16.51.342,two_step_task_legacy,2022.2.4,Win32,60.37553583,11,learning,1,TRUE,TRUE,2,0.847272487,purple,m,0,156,156,156,1,0.3,0.7,0.6,0.4,FALSE,resources/alien3_norm.png,0.6,resources/alien4_norm.png,0.4,0.5013,alien3,TRUE,2,0.280684731,72,1,0.6,x,0.8171,,,,,,,,,,,,,,,,,,,,,,,,,,,,,,,,,
645197,2023-11-09_11h16.51.342,two_step_task_legacy,2022.2.4,Win32,60.37553583,11,learning,1,TRUE,TRUE,2,0.855915221,purple,m,0,157,157,157,1,0.3,0.7,0.6,0.4,FALSE,resources/alien3_norm.png,0.6,resources/alien4_norm.png,0.4,0.2954,alien4,TRUE,3,0.476610053,72,0,0.4,m,0.735,,,,,,,,,,,,,,,,,,,,,,,,,,,,,,,,,
645197,2023-11-09_11h16.51.342,two_step_task_legacy,2022.2.4,Win32,60.37553583,11,learning,1,TRUE,TRUE,3,0.837304886,red,x,0,158,158,158,1,0.3,0.7,0.6,0.4,TRUE,resources/alien2_norm.png,0.7,resources/alien1_norm.png,0.3,0.3191,alien2,TRUE,3,0.722333679,72,0,0.7,x,0.616,,,,,,,,,,,,,,,,,,,,,,,,,,,,,,,,,
645197,2023-11-09_11h16.51.342,two_step_task_legacy,2022.2.4,Win32,60.37553583,11,learning,0,TRUE,TRUE,3,0.429532529,red,m,0,159,159,159,1,0.3,0.7,0.6,0.4,FALSE,resources/alien1_norm.png,0.3,resources/alien2_norm.png,0.7,0.4608,alien2,TRUE,2,0.242986669,73,1,0.7,m,0.6452,,,,,,,,,,,,,,,,,,,,,,,,,,,,,,,,,
645197,2023-11-09_11h16.51.342,two_step_task_legacy,2022.2.4,Win32,60.37553583,11,learning,0,TRUE,TRUE,3,0.174010574,red,m,0,160,160,160,1,0.3,0.7,0.6,0.4,TRUE,resources/alien2_norm.png,0.7,resources/alien1_norm.png,0.3,0.3059,alien1,TRUE,2,0.200663106,74,1,0.3,m,0.5714,,,,,,,,,,,,,,,,,,,,,,,,,,,,,,,,,
645197,2023-11-09_11h16.51.342,two_step_task_legacy,2022.2.4,Win32,60.37553583,11,learning,0,TRUE,TRUE,3,0.172279382,red,m,0,161,161,161,1,0.3,0.7,0.6,0.4,FALSE,resources/alien1_norm.png,0.3,resources/alien2_norm.png,0.7,0.2838,alien2,TRUE,3,0.965348114,74,0,0.7,m,0.788,,,,,,,,,,,,,,,,,,,,,,,,,,,,,,,,,
645197,2023-11-09_11h16.51.342,two_step_task_legacy,2022.2.4,Win32,60.37553583,11,learning,0,TRUE,TRUE,3,0.315128153,red,m,0,162,162,162,1,0.3,0.7,0.6,0.4,FALSE,resources/alien1_norm.png,0.3,resources/alien2_norm.png,0.7,0.2474,alien2,TRUE,3,0.98945753,74,0,0.7,m,0.2914,,,,,,,,,,,,,,,,,,,,,,,,,,,,,,,,,
645197,2023-11-09_11h16.51.342,two_step_task_legacy,2022.2.4,Win32,60.37553583,11,learning,0,TRUE,TRUE,3,0.531534928,red,m,0,163,163,163,1,0.3,0.7,0.6,0.4,TRUE,resources/alien2_norm.png,0.7,resources/alien1_norm.png,0.3,0.2497,alien1,TRUE,3,0.747652863,74,0,0.3,m,0.7949,,,,,,,,,,,,,,,,,,,,,,,,,,,,,,,,,
645197,2023-11-09_11h16.51.342,two_step_task_legacy,2022.2.4,Win32,60.37553583,11,learning,1,TRUE,TRUE,2,0.919978245,purple,m,0,164,164,164,1,0.3,0.7,0.6,0.4,FALSE,resources/alien3_norm.png,0.6,resources/alien4_norm.png,0.4,0.2885,alien3,TRUE,2,0.456132706,75,1,0.6,x,1.1205,,,,,,,,,,,,,,,,,,,,,,,,,,,,,,,,,
645197,2023-11-09_11h16.51.342,two_step_task_legacy,2022.2.4,Win32,60.37553583,11,learning,0,TRUE,TRUE,2,0.480983965,purple,x,0,165,165,165,1,0.3,0.7,0.6,0.4,TRUE,resources/alien4_norm.png,0.4,resources/alien3_norm.png,0.6,0.2903,alien3,TRUE,3,0.780543182,75,0,0.6,m,0.4676,,,,,,,,,,,,,,,,,,,,,,,,,,,,,,,,,
645197,2023-11-09_11h16.51.342,two_step_task_legacy,2022.2.4,Win32,60.37553583,11,learning,0,TRUE,TRUE,2,0.469586464,purple,x,0,166,166,166,1,0.3,0.7,0.6,0.4,FALSE,resources/alien3_norm.png,0.6,resources/alien4_norm.png,0.4,0.2997,alien3,TRUE,3,0.697937972,75,0,0.6,x,1.4685,,,,,,,,,,,,,,,,,,,,,,,,,,,,,,,,,
645197,2023-11-09_11h16.51.342,two_step_task_legacy,2022.2.4,Win32,60.37553583,11,learning,1,TRUE,TRUE,3,0.867214689,red,x,0,167,167,167,1,0.3,0.7,0.6,0.4,TRUE,resources/alien2_norm.png,0.7,resources/alien1_norm.png,0.3,0.2869,alien2,TRUE,2,0.028158,76,1,0.7,x,1.0226,,,,,,,,,,,,,,,,,,,,,,,,,,,,,,,,,
645197,2023-11-09_11h16.51.342,two_step_task_legacy,2022.2.4,Win32,60.37553583,11,learning,1,TRUE,TRUE,3,0.74754076,red,x,0,168,168,168,1,0.3,0.7,0.6,0.4,TRUE,resources/alien2_norm.png,0.7,resources/alien1_norm.png,0.3,0.4205,alien2,TRUE,3,0.848050163,76,0,0.7,x,1.1137,,,,,,,,,,,,,,,,,,,,,,,,,,,,,,,,,
645197,2023-11-09_11h16.51.342,two_step_task_legacy,2022.2.4,Win32,60.37553583,11,learning,0,TRUE,TRUE,3,0.683679794,red,m,0,169,169,169,1,0.3,0.7,0.6,0.4,TRUE,resources/alien2_norm.png,0.7,resources/alien1_norm.png,0.3,0.2946,alien2,TRUE,3,0.876257966,76,0,0.7,x,0.5758,,,,,,,,,,,,,,,,,,,,,,,,,,,,,,,,,
645197,2023-11-09_11h16.51.342,two_step_task_legacy,2022.2.4,Win32,60.37553583,11,learning,0,TRUE,TRUE,2,0.61608682,purple,x,0,170,170,170,1,0.3,0.7,0.6,0.4,TRUE,resources/alien4_norm.png,0.4,resources/alien3_norm.png,0.6,0.2754,alien4,TRUE,3,0.99336523,76,0,0.4,x,1.2338,,,,,,,,,,,,,,,,,,,,,,,,,,,,,,,,,
645197,2023-11-09_11h16.51.342,two_step_task_legacy,2022.2.4,Win32,60.37553583,11,learning,1,TRUE,TRUE,3,0.773611742,red,x,0,171,171,171,1,0.3,0.7,0.6,0.4,FALSE,resources/alien1_norm.png,0.3,resources/alien2_norm.png,0.7,0.2646,alien2,TRUE,3,0.845603451,76,0,0.7,m,0.6685,,,,,,,,,,,,,,,,,,,,,,,,,,,,,,,,,
645197,2023-11-09_11h16.51.342,two_step_task_legacy,2022.2.4,Win32,60.37553583,11,learning,1,TRUE,TRUE,2,0.920221086,purple,m,0,172,172,172,1,0.3,0.7,0.6,0.4,FALSE,resources/alien3_norm.png,0.6,resources/alien4_norm.png,0.4,0.2665,alien3,TRUE,2,0.014550708,77,1,0.6,x,0.4571,,,,,,,,,,,,,,,,,,,,,,,,,,,,,,,,,
645197,2023-11-09_11h16.51.342,two_step_task_legacy,2022.2.4,Win32,60.37553583,11,learning,0,TRUE,TRUE,3,0.510044505,red,m,0,173,173,173,1,0.3,0.7,0.6,0.4,TRUE,resources/alien2_norm.png,0.7,resources/alien1_norm.png,0.3,0.277,alien1,TRUE,3,0.609951629,77,0,0.3,m,0.4556,,,,,,,,,,,,,,,,,,,,,,,,,,,,,,,,,
645197,2023-11-09_11h16.51.342,two_step_task_legacy,2022.2.4,Win32,60.37553583,11,learning,1,TRUE,TRUE,2,0.722575861,purple,m,0,174,174,174,1,0.3,0.7,0.6,0.4,TRUE,resources/alien4_norm.png,0.4,resources/alien3_norm.png,0.6,0.2878,alien4,TRUE,3,0.595219938,77,0,0.4,x,1.3751,,,,,,,,,,,,,,,,,,,,,,,,,,,,,,,,,
645197,2023-11-09_11h16.51.342,two_step_task_legacy,2022.2.4,Win32,60.37553583,11,learning,1,TRUE,TRUE,2,0.752146587,purple,m,0,175,175,175,1,0.3,0.7,0.6,0.4,TRUE,resources/alien4_norm.png,0.4,resources/alien3_norm.png,0.6,0.334,alien3,TRUE,3,0.939393718,77,0,0.6,m,0.45,,,,,,,,,,,,,,,,,,,,,,,,,,,,,,,,,
645197,2023-11-09_11h16.51.342,two_step_task_legacy,2022.2.4,Win32,60.37553583,11,learning,0,TRUE,TRUE,3,0.373539261,red,m,0,176,176,176,1,0.3,0.7,0.6,0.4,TRUE,resources/alien2_norm.png,0.7,resources/alien1_norm.png,0.3,0.3652,alien2,TRUE,3,0.774955322,77,0,0.7,x,0.6156,,,,,,,,,,,,,,,,,,,,,,,,,,,,,,,,,
645197,2023-11-09_11h16.51.342,two_step_task_legacy,2022.2.4,Win32,60.37553583,11,learning,0,TRUE,TRUE,3,0.572280055,red,m,0,177,177,177,1,0.3,0.7,0.6,0.4,TRUE,resources/alien2_norm.png,0.7,resources/alien1_norm.png,0.3,0.3728,alien1,TRUE,2,0.108522929,78,1,0.3,m,0.6173,,,,,,,,,,,,,,,,,,,,,,,,,,,,,,,,,
645197,2023-11-09_11h16.51.342,two_step_task_legacy,2022.2.4,Win32,60.37553583,11,learning,0,TRUE,TRUE,3,0.230119431,red,m,0,178,178,178,1,0.3,0.7,0.6,0.4,FALSE,resources/alien1_norm.png,0.3,resources/alien2_norm.png,0.7,0.3686,alien1,TRUE,3,0.385976108,78,0,0.3,x,0.4342,,,,,,,,,,,,,,,,,,,,,,,,,,,,,,,,,
645197,2023-11-09_11h16.51.342,two_step_task_legacy,2022.2.4,Win32,60.37553583,11,learning,1,TRUE,TRUE,2,0.81462485,purple,m,0,179,179,179,1,0.3,0.7,0.6,0.4,FALSE,resources/alien3_norm.png,0.6,resources/alien4_norm.png,0.4,0.4704,alien3,TRUE,2,0.492276287,79,1,0.6,x,0.8703,,,,,,,,,,,,,,,,,,,,,,,,,,,,,,,,,
645197,2023-11-09_11h16.51.342,two_step_task_legacy,2022.2.4,Win32,60.37553583,11,learning,0,TRUE,TRUE,2,0.53815021,purple,x,0,180,180,180,1,0.3,0.7,0.6,0.4,FALSE,resources/alien3_norm.png,0.6,resources/alien4_norm.png,0.4,0.2874,alien3,TRUE,2,0.310797896,80,1,0.6,x,0.3918,,,,,,,,,,,,,,,,,,,,,,,,,,,,,,,,,
645197,2023-11-09_11h16.51.342,two_step_task_legacy,2022.2.4,Win32,60.37553583,11,learning,0,TRUE,TRUE,2,0.465957128,purple,x,0,181,181,181,1,0.3,0.7,0.6,0.4,FALSE,resources/alien3_norm.png,0.6,resources/alien4_norm.png,0.4,0.2351,alien3,TRUE,2,0.121313114,81,1,0.6,x,0.4583,,,,,,,,,,,,,,,,,,,,,,,,,,,,,,,,,
645197,2023-11-09_11h16.51.342,two_step_task_legacy,2022.2.4,Win32,60.37553583,11,learning,0,TRUE,TRUE,2,0.423309566,purple,x,0,182,182,182,1,0.3,0.7,0.6,0.4,FALSE,resources/alien3_norm.png,0.6,resources/alien4_norm.png,0.4,1.4215,alien3,TRUE,3,0.796730008,81,0,0.6,x,0.5238,,,,,,,,,,,,,,,,,,,,,,,,,,,,,,,,,
645197,2023-11-09_11h16.51.342,two_step_task_legacy,2022.2.4,Win32,60.37553583,11,learning,0,TRUE,TRUE,2,0.185585324,purple,x,0,183,183,183,1,0.3,0.7,0.6,0.4,TRUE,resources/alien4_norm.png,0.4,resources/alien3_norm.png,0.6,0.3094,alien3,TRUE,2,0.060695877,82,1,0.6,m,0.672,,,,,,,,,,,,,,,,,,,,,,,,,,,,,,,,,
645197,2023-11-09_11h16.51.342,two_step_task_legacy,2022.2.4,Win32,60.37553583,11,learning,0,TRUE,TRUE,2,0.270011472,purple,x,0,184,184,184,1,0.3,0.7,0.6,0.4,FALSE,resources/alien3_norm.png,0.6,resources/alien4_norm.png,0.4,0.2688,alien3,TRUE,3,0.847091981,82,0,0.6,x,1.0278,,,,,,,,,,,,,,,,,,,,,,,,,,,,,,,,,
645197,2023-11-09_11h16.51.342,two_step_task_legacy,2022.2.4,Win32,60.37553583,11,learning,1,TRUE,TRUE,3,0.7070718,red,x,0,185,185,185,1,0.3,0.7,0.6,0.4,TRUE,resources/alien2_norm.png,0.7,resources/alien1_norm.png,0.3,0.2006,alien1,TRUE,3,0.647627089,82,0,0.3,m,1.1097,,,,,,,,,,,,,,,,,,,,,,,,,,,,,,,,,
645197,2023-11-09_11h16.51.342,two_step_task_legacy,2022.2.4,Win32,60.37553583,11,learning,1,TRUE,TRUE,2,0.841661427,purple,m,0,186,186,186,1,0.3,0.7,0.6,0.4,FALSE,resources/alien3_norm.png,0.6,resources/alien4_norm.png,0.4,0.4335,alien3,TRUE,3,0.683637603,82,0,0.6,x,0.6606,,,,,,,,,,,,,,,,,,,,,,,,,,,,,,,,,
645197,2023-11-09_11h16.51.342,two_step_task_legacy,2022.2.4,Win32,60.37553583,11,learning,0,TRUE,TRUE,2,0.315790672,purple,x,0,187,187,187,1,0.3,0.7,0.6,0.4,TRUE,resources/alien4_norm.png,0.4,resources/alien3_norm.png,0.6,0.2839,alien4,TRUE,3,0.735759171,82,0,0.4,x,0.6209,,,,,,,,,,,,,,,,,,,,,,,,,,,,,,,,,
645197,2023-11-09_11h16.51.342,two_step_task_legacy,2022.2.4,Win32,60.37553583,11,learning,0,TRUE,TRUE,2,0.343074528,purple,x,0,188,188,188,1,0.3,0.7,0.6,0.4,FALSE,resources/alien3_norm.png,0.6,resources/alien4_norm.png,0.4,0.2589,alien4,TRUE,3,0.987234722,82,0,0.4,m,0.7049,,,,,,,,,,,,,,,,,,,,,,,,,,,,,,,,,
645197,2023-11-09_11h16.51.342,two_step_task_legacy,2022.2.4,Win32,60.37553583,11,learning,1,TRUE,TRUE,2,0.957383915,purple,m,0,189,189,189,1,0.3,0.7,0.6,0.4,FALSE,resources/alien3_norm.png,0.6,resources/alien4_norm.png,0.4,0.3113,alien3,TRUE,3,0.947502492,82,0,0.6,x,0.6455,,,,,,,,,,,,,,,,,,,,,,,,,,,,,,,,,
645197,2023-11-09_11h16.51.342,two_step_task_legacy,2022.2.4,Win32,60.37553583,11,learning,1,TRUE,TRUE,3,0.747782436,red,x,0,190,190,190,1,0.3,0.7,0.6,0.4,FALSE,resources/alien1_norm.png,0.3,resources/alien2_norm.png,0.7,0.4481,alien2,TRUE,3,0.914208252,82,0,0.7,m,0.7336,,,,,,,,,,,,,,,,,,,,,,,,,,,,,,,,,
645197,2023-11-09_11h16.51.342,two_step_task_legacy,2022.2.4,Win32,60.37553583,11,learning,0,TRUE,TRUE,3,0.325731519,red,m,0,191,191,191,1,0.3,0.7,0.6,0.4,FALSE,resources/alien1_norm.png,0.3,resources/alien2_norm.png,0.7,0.6212,alien1,TRUE,3,0.570091505,82,0,0.3,x,0.4716,,,,,,,,,,,,,,,,,,,,,,,,,,,,,,,,,
645197,2023-11-09_11h16.51.342,two_step_task_legacy,2022.2.4,Win32,60.37553583,11,learning,0,TRUE,TRUE,2,0.624628349,purple,x,0,192,192,192,1,0.3,0.7,0.6,0.4,FALSE,resources/alien3_norm.png,0.6,resources/alien4_norm.png,0.4,0.3076,alien3,TRUE,2,0.359946647,83,1,0.6,x,0.4065,,,,,,,,,,,,,,,,,,,,,,,,,,,,,,,,,
645197,2023-11-09_11h16.51.342,two_step_task_legacy,2022.2.4,Win32,60.37553583,11,learning,0,TRUE,TRUE,2,0.198220485,purple,x,0,193,193,193,1,0.3,0.7,0.6,0.4,TRUE,resources/alien4_norm.png,0.4,resources/alien3_norm.png,0.6,0.2374,alien4,TRUE,2,0.112959915,84,1,0.4,x,0.2884,,,,,,,,,,,,,,,,,,,,,,,,,,,,,,,,,
645197,2023-11-09_11h16.51.342,two_step_task_legacy,2022.2.4,Win32,60.37553583,11,learning,0,TRUE,TRUE,2,0.134000903,purple,x,0,194,194,194,1,0.3,0.7,0.6,0.4,TRUE,resources/alien4_norm.png,0.4,resources/alien3_norm.png,0.6,0.2499,alien4,TRUE,2,0.360716627,85,1,0.4,x,0.8294,,,,,,,,,,,,,,,,,,,,,,,,,,,,,,,,,
645197,2023-11-09_11h16.51.342,two_step_task_legacy,2022.2.4,Win32,60.37553583,11,learning,0,TRUE,TRUE,2,0.011036573,purple,x,0,195,195,195,1,0.3,0.7,0.6,0.4,FALSE,resources/alien3_norm.png,0.6,resources/alien4_norm.png,0.4,0.2643,alien4,TRUE,3,0.687548033,85,0,0.4,m,0.5388,,,,,,,,,,,,,,,,,,,,,,,,,,,,,,,,,
645197,2023-11-09_11h16.51.342,two_step_task_legacy,2022.2.4,Win32,60.37553583,11,learning,0,TRUE,TRUE,2,0.005517805,purple,x,0,196,196,196,1,0.3,0.7,0.6,0.4,FALSE,resources/alien3_norm.png,0.6,resources/alien4_norm.png,0.4,0.7069,alien4,TRUE,3,0.67661094,85,0,0.4,m,0.5178,,,,,,,,,,,,,,,,,,,,,,,,,,,,,,,,,
645197,2023-11-09_11h16.51.342,two_step_task_legacy,2022.2.4,Win32,60.37553583,11,learning,0,TRUE,TRUE,2,0.67810544,purple,x,0,197,197,197,1,0.3,0.7,0.6,0.4,TRUE,resources/alien4_norm.png,0.4,resources/alien3_norm.png,0.6,0.278,alien3,TRUE,2,0.282162462,86,1,0.6,m,0.3118,,,,,,,,,,,,,,,,,,,,,,,,,,,,,,,,,
645197,2023-11-09_11h16.51.342,two_step_task_legacy,2022.2.4,Win32,60.37553583,11,learning,0,TRUE,TRUE,2,0.286994299,purple,x,0,198,198,198,1,0.3,0.7,0.6,0.4,FALSE,resources/alien3_norm.png,0.6,resources/alien4_norm.png,0.4,0.2506,alien4,TRUE,3,0.543990199,86,0,0.4,m,0.3815,,,,,,,,,,,,,,,,,,,,,,,,,,,,,,,,,
645197,2023-11-09_11h16.51.342,two_step_task_legacy,2022.2.4,Win32,60.37553583,11,learning,0,TRUE,TRUE,2,0.178080909,purple,x,0,199,199,199,1,0.3,0.7,0.6,0.4,TRUE,resources/alien4_norm.png,0.4,resources/alien3_norm.png,0.6,0.2982,alien3,TRUE,2,0.037528239,87,1,0.6,m,0.8423,,,,,,,,,,,,,,,,,,,,,,,,,,,,,,,,,
645197,2023-11-09_11h16.51.342,two_step_task_legacy,2022.2.4,Win32,60.37553583,11,learning,1,TRUE,TRUE,3,0.839560503,red,x,0,200,200,200,1,0.3,0.7,0.6,0.4,TRUE,resources/alien2_norm.png,0.7,resources/alien1_norm.png,0.3,0.6878,alien2,TRUE,3,0.790947686,87,0,0.7,x,0.9455,,,,,,,,,,,,,,,,,,,,,,,,,,,,,,,,,
645197,2023-11-09_11h16.51.342,two_step_task_legacy,2022.2.4,Win32,60.37553583,11,learning,1,TRUE,TRUE,3,0.987773284,red,x,0,201,201,201,1,0.3,0.7,0.6,0.4,TRUE,resources/alien2_norm.png,0.7,resources/alien1_norm.png,0.3,0.491,alien1,TRUE,3,0.469676174,87,0,0.3,m,0.5546,,,,,,,,,,,,,,,,,,,,,,,,,,,,,,,,,
645197,2023-11-09_11h16.51.342,two_step_task_legacy,2022.2.4,Win32,60.37553583,11,learning,0,TRUE,TRUE,2,0.327828865,purple,x,0,202,202,202,1,0.3,0.7,0.6,0.4,FALSE,resources/alien3_norm.png,0.6,resources/alien4_norm.png,0.4,0.4167,alien3,TRUE,2,0.547505576,88,1,0.6,x,1.0394,,,,,,,,,,,,,,,,,,,,,,,,,,,,,,,,,
645197,2023-11-09_11h16.51.342,two_step_task_legacy,2022.2.4,Win32,60.37553583,11,learning,1,TRUE,TRUE,3,0.950690767,red,x,0,203,203,203,1,0.3,0.7,0.6,0.4,TRUE,resources/alien2_norm.png,0.7,resources/alien1_norm.png,0.3,0.2761,alien2,TRUE,2,0.111038731,89,1,0.7,x,1.7942,,,,,,,,,,,,,,,,,,,,,,,,,,,,,,,,,
645197,2023-11-09_11h16.51.342,two_step_task_legacy,2022.2.4,Win32,60.37553583,11,learning,0,TRUE,TRUE,2,0.654822264,purple,x,0,204,204,204,1,0.3,0.7,0.6,0.4,TRUE,resources/alien4_norm.png,0.4,resources/alien3_norm.png,0.6,0.269,alien4,TRUE,2,0.319090237,90,1,0.4,x,0.4158,,,,,,,,,,,,,,,,,,,,,,,,,,,,,,,,,
645197,2023-11-09_11h16.51.342,two_step_task_legacy,2022.2.4,Win32,60.37553583,11,learning,0,TRUE,TRUE,2,0.501524861,purple,x,0,205,205,205,1,0.3,0.7,0.6,0.4,FALSE,resources/alien3_norm.png,0.6,resources/alien4_norm.png,0.4,0.2549,alien4,TRUE,3,0.490999302,90,0,0.4,m,0.8958,,,,,,,,,,,,,,,,,,,,,,,,,,,,,,,,,
645197,2023-11-09_11h16.51.342,two_step_task_legacy,2022.2.4,Win32,60.37553583,11,learning,0,TRUE,TRUE,2,0.209144209,purple,x,0,206,206,206,1,0.3,0.7,0.6,0.4,TRUE,resources/alien4_norm.png,0.4,resources/alien3_norm.png,0.6,0.2476,alien3,TRUE,3,0.64724063,90,0,0.6,m,0.413,,,,,,,,,,,,,,,,,,,,,,,,,,,,,,,,,
645197,2023-11-09_11h16.51.342,two_step_task_legacy,2022.2.4,Win32,60.37553583,11,learning,0,TRUE,TRUE,2,0.345579837,purple,x,0,207,207,207,1,0.3,0.7,0.6,0.4,TRUE,resources/alien4_norm.png,0.4,resources/alien3_norm.png,0.6,0.2496,alien4,TRUE,3,0.743082913,90,0,0.4,x,0.3684,,,,,,,,,,,,,,,,,,,,,,,,,,,,,,,,,
645197,2023-11-09_11h16.51.342,two_step_task_legacy,2022.2.4,Win32,60.37553583,11,learning,0,TRUE,TRUE,3,0.1443294,red,m,0,208,208,208,1,0.3,0.7,0.6,0.4,TRUE,resources/alien2_norm.png,0.7,resources/alien1_norm.png,0.3,0.4906,alien2,TRUE,3,0.817854082,90,0,0.7,x,0.4427,,,,,,,,,,,,,,,,,,,,,,,,,,,,,,,,,
645197,2023-11-09_11h16.51.342,two_step_task_legacy,2022.2.4,Win32,60.37553583,11,learning,0,TRUE,TRUE,3,0.564106631,red,m,0,209,209,209,1,0.3,0.7,0.6,0.4,TRUE,resources/alien2_norm.png,0.7,resources/alien1_norm.png,0.3,0.2668,alien2,TRUE,2,0.072533289,91,1,0.7,x,0.3539,,,,,,,,,,,,,,,,,,,,,,,,,,,,,,,,,
645197,2023-11-09_11h16.51.342,two_step_task_legacy,2022.2.4,Win32,60.37553583,11,learning,0,TRUE,TRUE,3,0.597887052,red,m,0,210,210,210,1,0.3,0.7,0.6,0.4,FALSE,resources/alien1_norm.png,0.3,resources/alien2_norm.png,0.7,0.2613,alien2,TRUE,3,0.707793623,91,0,0.7,m,0.6844,,,,,,,,,,,,,,,,,,,,,,,,,,,,,,,,,
645197,2023-11-09_11h16.51.342,two_step_task_legacy,2022.2.4,Win32,60.37553583,11,learning,0,TRUE,TRUE,3,0.466825051,red,m,0,211,211,211,1,0.3,0.7,0.6,0.4,TRUE,resources/alien2_norm.png,0.7,resources/alien1_norm.png,0.3,0.3187,alien1,TRUE,3,0.591172616,91,0,0.3,m,0.6344,,,,,,,,,,,,,,,,,,,,,,,,,,,,,,,,,
645197,2023-11-09_11h16.51.342,two_step_task_legacy,2022.2.4,Win32,60.37553583,11,learning,0,TRUE,TRUE,3,0.069817178,red,m,0,212,212,212,1,0.3,0.7,0.6,0.4,FALSE,resources/alien1_norm.png,0.3,resources/alien2_norm.png,0.7,0.2436,alien1,TRUE,3,0.433296312,91,0,0.3,x,0.6189,,,,,,,,,,,,,,,,,,,,,,,,,,,,,,,,,
645197,2023-11-09_11h16.51.342,two_step_task_legacy,2022.2.4,Win32,60.37553583,11,learning,0,TRUE,TRUE,3,0.568693272,red,m,0,213,213,213,1,0.3,0.7,0.6,0.4,TRUE,resources/alien2_norm.png,0.7,resources/alien1_norm.png,0.3,0.2838,alien2,TRUE,2,0.373833493,92,1,0.7,x,0.5625,,,,,,,,,,,,,,,,,,,,,,,,,,,,,,,,,
645197,2023-11-09_11h16.51.342,two_step_task_legacy,2022.2.4,Win32,60.37553583,11,learning,0,TRUE,TRUE,3,0.549649746,red,m,0,214,214,214,1,0.3,0.7,0.6,0.4,FALSE,resources/alien1_norm.png,0.3,resources/alien2_norm.png,0.7,0.2507,alien2,TRUE,2,0.11660955,93,1,0.7,m,0.5466,,,,,,,,,,,,,,,,,,,,,,,,,,,,,,,,,
645197,2023-11-09_11h16.51.342,two_step_task_legacy,2022.2.4,Win32,60.37553583,11,learning,1,TRUE,TRUE,2,0.794476909,purple,m,0,215,215,215,1,0.3,0.7,0.6,0.4,TRUE,resources/alien4_norm.png,0.4,resources/alien3_norm.png,0.6,0.773,alien3,TRUE,2,0.037202105,94,1,0.6,m,2.0515,,,,,,,,,,,,,,,,,,,,,,,,,,,,,,,,,
645197,2023-11-09_11h16.51.342,two_step_task_legacy,2022.2.4,Win32,60.37553583,11,learning,1,TRUE,TRUE,3,0.984700232,red,x,0,216,216,216,1,0.3,0.7,0.6,0.4,FALSE,resources/alien1_norm.png,0.3,resources/alien2_norm.png,0.7,0.5181,alien2,TRUE,2,0.21616909,95,1,0.7,m,0.7875,,,,,,,,,,,,,,,,,,,,,,,,,,,,,,,,,
645197,2023-11-09_11h16.51.342,two_step_task_legacy,2022.2.4,Win32,60.37553583,11,learning,0,TRUE,TRUE,3,0.546718031,red,m,0,217,217,217,1,0.3,0.7,0.6,0.4,TRUE,resources/alien2_norm.png,0.7,resources/alien1_norm.png,0.3,0.2369,alien2,TRUE,2,0.679033407,96,1,0.7,x,0.725,,,,,,,,,,,,,,,,,,,,,,,,,,,,,,,,,
645197,2023-11-09_11h16.51.342,two_step_task_legacy,2022.2.4,Win32,60.37553583,11,learning,0,TRUE,TRUE,3,0.11992338,red,m,0,218,218,218,1,0.3,0.7,0.6,0.4,TRUE,resources/alien2_norm.png,0.7,resources/alien1_norm.png,0.3,0.6293,alien2,TRUE,2,0.21154386,97,1,0.7,x,0.4343,,,,,,,,,,,,,,,,,,,,,,,,,,,,,,,,,
645197,2023-11-09_11h16.51.342,two_step_task_legacy,2022.2.4,Win32,60.37553583,11,learning,0,TRUE,TRUE,2,0.436925683,purple,x,0,219,219,219,1,0.3,0.7,0.6,0.4,TRUE,resources/alien4_norm.png,0.4,resources/alien3_norm.png,0.6,0.3691,alien3,TRUE,3,0.686610098,97,0,0.6,m,0.5866,,,,,,,,,,,,,,,,,,,,,,,,,,,,,,,,,
645197,2023-11-09_11h16.51.342,two_step_task_legacy,2022.2.4,Win32,60.37553583,11,learning,1,TRUE,TRUE,3,0.972227838,red,x,0,220,220,220,1,0.3,0.7,0.6,0.4,TRUE,resources/alien2_norm.png,0.7,resources/alien1_norm.png,0.3,0.5112,alien2,TRUE,2,0.273086914,98,1,0.7,x,0.9173,,,,,,,,,,,,,,,,,,,,,,,,,,,,,,,,,
645197,2023-11-09_11h16.51.342,two_step_task_legacy,2022.2.4,Win32,60.37553583,11,learning,0,TRUE,TRUE,2,0.151061369,purple,x,0,221,221,221,1,0.3,0.7,0.6,0.4,TRUE,resources/alien4_norm.png,0.4,resources/alien3_norm.png,0.6,0.3034,alien3,TRUE,3,0.870326965,98,0,0.6,m,0.3982,,,,,,,,,,,,,,,,,,,,,,,,,,,,,,,,,
645197,2023-11-09_11h16.51.342,two_step_task_legacy,2022.2.4,Win32,60.37553583,11,learning,0,TRUE,TRUE,3,0.180380802,red,m,0,222,222,222,1,0.3,0.7,0.6,0.4,TRUE,resources/alien2_norm.png,0.7,resources/alien1_norm.png,0.3,0.3281,alien2,TRUE,3,0.767075206,98,0,0.7,x,0.4998,,,,,,,,,,,,,,,,,,,,,,,,,,,,,,,,,
645197,2023-11-09_11h16.51.342,two_step_task_legacy,2022.2.4,Win32,60.37553583,11,learning,0,TRUE,TRUE,3,0.017364136,red,m,0,223,223,223,1,0.3,0.7,0.6,0.4,TRUE,resources/alien2_norm.png,0.7,resources/alien1_norm.png,0.3,0.6224,alien2,TRUE,2,0.014458628,99,1,0.7,x,1.1103,,,,,,,,,,,,,,,,,,,,,,,,,,,,,,,,,
645197,2023-11-09_11h16.51.342,two_step_task_legacy,2022.2.4,Win32,60.37553583,11,learning,1,TRUE,TRUE,2,0.895719514,purple,m,0,224,224,224,1,0.3,0.7,0.6,0.4,FALSE,resources/alien3_norm.png,0.6,resources/alien4_norm.png,0.4,0.5294,alien4,TRUE,2,0.225081429,100,1,0.4,m,1.3873,,,,,,,,,,,,,,,,,,,,,,,,,,,,,,,,,
645197,2023-11-09_11h16.51.342,two_step_task_legacy,2022.2.4,Win32,60.37553583,11,learning,1,TRUE,TRUE,3,0.786409507,red,x,0,225,225,225,1,0.3,0.7,0.6,0.4,TRUE,resources/alien2_norm.png,0.7,resources/alien1_norm.png,0.3,0.384,alien2,TRUE,2,0.3042365,101,1,0.7,x,1.2721,,,,,,,,,,,,,,,,,,,,,,,,,,,,,,,,,
645197,2023-11-09_11h16.51.342,two_step_task_legacy,2022.2.4,Win32,60.37553583,11,learning,0,TRUE,TRUE,3,0.115911555,red,m,0,226,226,226,1,0.3,0.7,0.6,0.4,FALSE,resources/alien1_norm.png,0.3,resources/alien2_norm.png,0.7,0.5201,alien2,TRUE,2,0.23803108,102,1,0.7,m,1.1131,,,,,,,,,,,,,,,,,,,,,,,,,,,,,,,,,
645197,2023-11-09_11h16.51.342,two_step_task_legacy,2022.2.4,Win32,60.37553583,11,learning,1,TRUE,TRUE,2,0.828405137,purple,m,0,227,227,227,1,0.3,0.7,0.6,0.4,FALSE,resources/alien3_norm.png,0.6,resources/alien4_norm.png,0.4,0.2937,alien3,TRUE,3,0.885417109,102,0,0.6,x,1.5131,,,,,,,,,,,,,,,,,,,,,,,,,,,,,,,,,
645197,2023-11-09_11h16.51.342,two_step_task_legacy,2022.2.4,Win32,60.37553583,11,learning,1,TRUE,TRUE,2,0.87719665,purple,m,0,228,228,228,1,0.3,0.7,0.6,0.4,TRUE,resources/alien4_norm.png,0.4,resources/alien3_norm.png,0.6,0.4958,alien3,TRUE,2,0.287774369,103,1,0.6,m,0.7397,,,,,,,,,,,,,,,,,,,,,,,,,,,,,,,,,
645197,2023-11-09_11h16.51.342,two_step_task_legacy,2022.2.4,Win32,60.37553583,11,learning,0,TRUE,TRUE,3,0.296373955,red,m,0,229,229,229,1,0.3,0.7,0.6,0.4,TRUE,resources/alien2_norm.png,0.7,resources/alien1_norm.png,0.3,0.5319,alien2,TRUE,2,0.467482383,104,1,0.7,x,1.4208,,,,,,,,,,,,,,,,,,,,,,,,,,,,,,,,,
645197,2023-11-09_11h16.51.342,two_step_task_legacy,2022.2.4,Win32,60.37553583,11,learning,0,TRUE,TRUE,3,0.162004242,red,m,0,230,230,230,1,0.3,0.7,0.6,0.4,FALSE,resources/alien1_norm.png,0.3,resources/alien2_norm.png,0.7,0.5282,alien2,TRUE,2,0.615486355,105,1,0.7,m,0.894,,,,,,,,,,,,,,,,,,,,,,,,,,,,,,,,,
645197,2023-11-09_11h16.51.342,two_step_task_legacy,2022.2.4,Win32,60.37553583,11,learning,0,TRUE,TRUE,3,0.123251995,red,m,0,231,231,231,1,0.3,0.7,0.6,0.4,FALSE,resources/alien1_norm.png,0.3,resources/alien2_norm.png,0.7,0.3041,alien2,TRUE,2,0.077251621,106,1,0.7,m,0.4007,,,,,,,,,,,,,,,,,,,,,,,,,,,,,,,,,
645197,2023-11-09_11h16.51.342,two_step_task_legacy,2022.2.4,Win32,60.37553583,11,learning,1,TRUE,TRUE,3,0.716174928,red,x,0,232,232,232,1,0.3,0.7,0.6,0.4,TRUE,resources/alien2_norm.png,0.7,resources/alien1_norm.png,0.3,0.3165,alien2,TRUE,2,0.587432766,107,1,0.7,x,0.6766,,,,,,,,,,,,,,,,,,,,,,,,,,,,,,,,,
645197,2023-11-09_11h16.51.342,two_step_task_legacy,2022.2.4,Win32,60.37553583,11,learning,0,TRUE,TRUE,3,0.060544751,red,m,0,233,233,233,1,0.3,0.7,0.6,0.4,FALSE,resources/alien1_norm.png,0.3,resources/alien2_norm.png,0.7,0.5281,alien2,TRUE,2,0.403135656,108,1,0.7,m,0.6333,,,,,,,,,,,,,,,,,,,,,,,,,,,,,,,,,
645197,2023-11-09_11h16.51.342,two_step_task_legacy,2022.2.4,Win32,60.37553583,11,learning,0,TRUE,TRUE,3,0.266881129,red,m,0,234,234,234,1,0.3,0.7,0.6,0.4,TRUE,resources/alien2_norm.png,0.7,resources/alien1_norm.png,0.3,0.2666,alien2,TRUE,3,0.965987781,108,0,0.7,x,0.5009,,,,,,,,,,,,,,,,,,,,,,,,,,,,,,,,,
645197,2023-11-09_11h16.51.342,two_step_task_legacy,2022.2.4,Win32,60.37553583,11,learning,0,TRUE,TRUE,3,0.016269531,red,m,0,235,235,235,1,0.3,0.7,0.6,0.4,TRUE,resources/alien2_norm.png,0.7,resources/alien1_norm.png,0.3,0.2682,alien1,TRUE,2,0.20310542,109,1,0.3,m,0.4539,,,,,,,,,,,,,,,,,,,,,,,,,,,,,,,,,
645197,2023-11-09_11h16.51.342,two_step_task_legacy,2022.2.4,Win32,60.37553583,11,learning,0,TRUE,TRUE,3,0.101985953,red,m,0,236,236,236,1,0.3,0.7,0.6,0.4,FALSE,resources/alien1_norm.png,0.3,resources/alien2_norm.png,0.7,0.2392,alien1,TRUE,3,0.733303734,109,0,0.3,x,0.5022,,,,,,,,,,,,,,,,,,,,,,,,,,,,,,,,,
645197,2023-11-09_11h16.51.342,two_step_task_legacy,2022.2.4,Win32,60.37553583,11,learning,0,TRUE,TRUE,3,0.387660713,red,m,0,237,237,237,1,0.3,0.7,0.6,0.4,FALSE,resources/alien1_norm.png,0.3,resources/alien2_norm.png,0.7,0.3498,alien1,TRUE,3,0.447263559,109,0,0.3,x,0.4181,,,,,,,,,,,,,,,,,,,,,,,,,,,,,,,,,
645197,2023-11-09_11h16.51.342,two_step_task_legacy,2022.2.4,Win32,60.37553583,11,learning,0,TRUE,TRUE,3,0.543105078,red,m,0,238,238,238,1,0.3,0.7,0.6,0.4,FALSE,resources/alien1_norm.png,0.3,resources/alien2_norm.png,0.7,0.2368,alien2,TRUE,2,0.052367086,110,1,0.7,m,0.2682,,,,,,,,,,,,,,,,,,,,,,,,,,,,,,,,,
645197,2023-11-09_11h16.51.342,two_step_task_legacy,2022.2.4,Win32,60.37553583,11,learning,0,TRUE,TRUE,2,0.506029371,purple,x,0,239,239,239,1,0.3,0.7,0.6,0.4,FALSE,resources/alien3_norm.png,0.6,resources/alien4_norm.png,0.4,0.3062,alien4,TRUE,2,0.338687998,111,1,0.4,m,0.4031,,,,,,,,,,,,,,,,,,,,,,,,,,,,,,,,,
645197,2023-11-09_11h16.51.342,two_step_task_legacy,2022.2.4,Win32,60.37553583,11,learning,0,TRUE,TRUE,3,0.061678034,red,m,0,240,240,240,1,0.3,0.7,0.6,0.4,TRUE,resources/alien2_norm.png,0.7,resources/alien1_norm.png,0.3,0.256,alien2,TRUE,3,0.928337539,111,0,0.7,x,0.5998,,,,,,,,,,,,,,,,,,,,,,,,,,,,,,,,,
645197,2023-11-09_11h16.51.342,two_step_task_legacy,2022.2.4,Win32,60.37553583,11,learning,1,TRUE,TRUE,2,0.926295645,purple,m,0,241,241,241,1,0.3,0.7,0.6,0.4,FALSE,resources/alien3_norm.png,0.6,resources/alien4_norm.png,0.4,0.527,alien4,TRUE,2,0.016028287,112,1,0.4,m,0.94,,,,,,,,,,,,,,,,,,,,,,,,,,,,,,,,,
645197,2023-11-09_11h16.51.342,two_step_task_legacy,2022.2.4,Win32,60.37553583,11,learning,0,TRUE,TRUE,2,0.267642817,purple,x,0,242,242,242,1,0.3,0.7,0.6,0.4,FALSE,resources/alien3_norm.png,0.6,resources/alien4_norm.png,0.4,2.0624,alien3,TRUE,3,0.952193821,112,0,0.6,x,1.0136,,,,,,,,,,,,,,,,,,,,,,,,,,,,,,,,,
645197,2023-11-09_11h16.51.342,two_step_task_legacy,2022.2.4,Win32,60.37553583,11,learning,0,TRUE,TRUE,3,0.38400958,red,m,0,243,243,243,1,0.3,0.7,0.6,0.4,TRUE,resources/alien2_norm.png,0.7,resources/alien1_norm.png,0.3,0.5917,alien2,TRUE,3,0.843943511,112,0,0.7,x,1.4737,,,,,,,,,,,,,,,,,,,,,,,,,,,,,,,,,
645197,2023-11-09_11h16.51.342,two_step_task_legacy,2022.2.4,Win32,60.37553583,11,learning,1,TRUE,TRUE,2,0.79109376,purple,m,0,244,244,244,1,0.3,0.7,0.6,0.4,TRUE,resources/alien4_norm.png,0.4,resources/alien3_norm.png,0.6,0.8344,alien4,TRUE,3,0.781000714,112,0,0.4,x,1.6762,,,,,,,,,,,,,,,,,,,,,,,,,,,,,,,,,
645197,2023-11-09_11h16.51.342,two_step_task_legacy,2022.2.4,Win32,60.37553583,11,learning,1,TRUE,TRUE,3,0.737395846,red,x,0,245,245,245,1,0.3,0.7,0.6,0.4,FALSE,resources/alien1_norm.png,0.3,resources/alien2_norm.png,0.7,0.4898,alien2,TRUE,2,0.153253002,113,1,0.7,m,0.8663,,,,,,,,,,,,,,,,,,,,,,,,,,,,,,,,,
645197,2023-11-09_11h16.51.342,two_step_task_legacy,2022.2.4,Win32,60.37553583,11,learning,1,TRUE,TRUE,2,0.880796966,purple,m,0,246,246,246,1,0.3,0.7,0.6,0.4,TRUE,resources/alien4_norm.png,0.4,resources/alien3_norm.png,0.6,0.3007,alien3,TRUE,3,0.770096065,113,0,0.6,m,1.2783,,,,,,,,,,,,,,,,,,,,,,,,,,,,,,,,,
645197,2023-11-09_11h16.51.342,two_step_task_legacy,2022.2.4,Win32,60.37553583,11,learning,0,TRUE,TRUE,2,0.412936605,purple,x,0,247,247,247,1,0.3,0.7,0.6,0.4,FALSE,resources/alien3_norm.png,0.6,resources/alien4_norm.png,0.4,0.2593,alien3,TRUE,3,0.906482728,113,0,0.6,x,0.3291,,,,,,,,,,,,,,,,,,,,,,,,,,,,,,,,,
645197,2023-11-09_11h16.51.342,two_step_task_legacy,2022.2.4,Win32,60.37553583,11,learning,0,TRUE,TRUE,2,0.397725092,purple,x,0,248,248,248,1,0.3,0.7,0.6,0.4,TRUE,resources/alien4_norm.png,0.4,resources/alien3_norm.png,0.6,1.6626,alien4,TRUE,3,0.875607542,113,0,0.4,x,0.9841,,,,,,,,,,,,,,,,,,,,,,,,,,,,,,,,,
645197,2023-11-09_11h16.51.342,two_step_task_legacy,2022.2.4,Win32,60.37553583,11,learning,0,TRUE,TRUE,3,0.252036306,red,m,0,249,249,249,1,0.3,0.7,0.6,0.4,FALSE,resources/alien1_norm.png,0.3,resources/alien2_norm.png,0.7,0.3398,alien2,TRUE,2,0.510893719,114,1,0.7,m,0.8402,,,,,,,,,,,,,,,,,,,,,,,,,,,,,,,,,
645197,2023-11-09_11h16.51.342,two_step_task_legacy,2022.2.4,Win32,60.37553583,11,learning,1,TRUE,TRUE,2,0.854682934,purple,m,0,250,250,250,1,0.3,0.7,0.6,0.4,FALSE,resources/alien3_norm.png,0.6,resources/alien4_norm.png,0.4,0.3497,alien4,TRUE,3,0.58540175,114,0,0.4,m,1.194,,,,,,,,,,,,,,,,,,,,,,,,,,,,,,,,,
645197,2023-11-09_11h16.51.342,two_step_task_legacy,2022.2.4,Win32,60.37553583,11,learning,0,TRUE,TRUE,2,0.094925206,purple,x,0,251,251,251,1,0.3,0.7,0.6,0.4,TRUE,resources/alien4_norm.png,0.4,resources/alien3_norm.png,0.6,0.671,alien4,TRUE,3,0.9776172,114,0,0.4,x,0.5832,,,,,,,,,,,,,,,,,,,,,,,,,,,,,,,,,
645197,2023-11-09_11h16.51.342,two_step_task_legacy,2022.2.4,Win32,60.37553583,11,learning,0,TRUE,TRUE,2,0.098974822,purple,x,0,252,252,252,1,0.3,0.7,0.6,0.4,FALSE,resources/alien3_norm.png,0.6,resources/alien4_norm.png,0.4,0.4621,alien3,TRUE,2,0.140019626,115,1,0.6,x,0.7184,,,,,,,,,,,,,,,,,,,,,,,,,,,,,,,,,
645197,2023-11-09_11h16.51.342,two_step_task_legacy,2022.2.4,Win32,60.37553583,11,learning,0,TRUE,TRUE,2,0.28996592,purple,x,0,253,253,253,1,0.3,0.7,0.6,0.4,TRUE,resources/alien4_norm.png,0.4,resources/alien3_norm.png,0.6,0.6043,alien3,TRUE,3,0.976807782,115,0,0.6,m,0.5449,,,,,,,,,,,,,,,,,,,,,,,,,,,,,,,,,
645197,2023-11-09_11h16.51.342,two_step_task_legacy,2022.2.4,Win32,60.37553583,11,learning,0,TRUE,TRUE,2,0.486939764,purple,x,0,254,254,254,1,0.3,0.7,0.6,0.4,FALSE,resources/alien3_norm.png,0.6,resources/alien4_norm.png,0.4,0.2832,alien3,TRUE,3,0.955319577,115,0,0.6,x,0.6215,,,,,,,,,,,,,,,,,,,,,,,,,,,,,,,,,
645197,2023-11-09_11h16.51.342,two_step_task_legacy,2022.2.4,Win32,60.37553583,11,learning,1,TRUE,TRUE,3,0.782399208,red,x,0,255,255,255,1,0.3,0.7,0.6,0.4,FALSE,resources/alien1_norm.png,0.3,resources/alien2_norm.png,0.7,0.3271,alien2,TRUE,3,0.838352193,115,0,0.7,m,0.8319,,,,,,,,,,,,,,,,,,,,,,,,,,,,,,,,,
645197,2023-11-09_11h16.51.342,two_step_task_legacy,2022.2.4,Win32,60.37553583,11,learning,0,TRUE,TRUE,3,0.565556831,red,m,0,256,256,256,1,0.3,0.7,0.6,0.4,TRUE,resources/alien2_norm.png,0.7,resources/alien1_norm.png,0.3,0.308,alien2,TRUE,2,0.487997321,116,1,0.7,x,0.3485,,,,,,,,,,,,,,,,,,,,,,,,,,,,,,,,,
645197,2023-11-09_11h16.51.342,two_step_task_legacy,2022.2.4,Win32,60.37553583,11,learning,1,TRUE,TRUE,2,0.817694335,purple,m,0,257,257,257,1,0.3,0.7,0.6,0.4,TRUE,resources/alien4_norm.png,0.4,resources/alien3_norm.png,0.6,0.273,alien4,TRUE,3,0.759283833,116,0,0.4,x,0.2692,,,,,,,,,,,,,,,,,,,,,,,,,,,,,,,,,
645197,2023-11-09_11h16.51.342,two_step_task_legacy,2022.2.4,Win32,60.37553583,11,learning,0,TRUE,TRUE,3,0.201810375,red,m,0,258,258,258,1,0.3,0.7,0.6,0.4,FALSE,resources/alien1_norm.png,0.3,resources/alien2_norm.png,0.7,0.259,alien2,TRUE,2,0.145451168,117,1,0.7,m,0.3761,,,,,,,,,,,,,,,,,,,,,,,,,,,,,,,,,
645197,2023-11-09_11h16.51.342,two_step_task_legacy,2022.2.4,Win32,60.37553583,11,learning,1,TRUE,TRUE,2,0.981253377,purple,m,0,259,259,259,1,0.3,0.7,0.6,0.4,FALSE,resources/alien3_norm.png,0.6,resources/alien4_norm.png,0.4,0.2644,alien4,TRUE,3,0.908077623,117,0,0.4,m,1.173,,,,,,,,,,,,,,,,,,,,,,,,,,,,,,,,,
645197,2023-11-09_11h16.51.342,two_step_task_legacy,2022.2.4,Win32,60.37553583,11,learning,1,TRUE,TRUE,2,0.716814833,purple,m,0,260,260,260,1,0.3,0.7,0.6,0.4,TRUE,resources/alien4_norm.png,0.4,resources/alien3_norm.png,0.6,0.3612,alien3,TRUE,2,0.0185168,118,1,0.6,m,0.9066,,,,,,,,,,,,,,,,,,,,,,,,,,,,,,,,,
645197,2023-11-09_11h16.51.342,two_step_task_legacy,2022.2.4,Win32,60.37553583,11,learning,0,TRUE,TRUE,3,0.563680732,red,m,0,261,261,261,1,0.3,0.7,0.6,0.4,FALSE,resources/alien1_norm.png,0.3,resources/alien2_norm.png,0.7,0.3373,alien1,TRUE,3,0.640631222,118,0,0.3,x,0.5334,,,,,,,,,,,,,,,,,,,,,,,,,,,,,,,,,
645197,2023-11-09_11h16.51.342,two_step_task_legacy,2022.2.4,Win32,60.37553583,11,learning,0,TRUE,TRUE,3,0.455563218,red,m,0,262,262,262,1,0.3,0.7,0.6,0.4,FALSE,resources/alien1_norm.png,0.3,resources/alien2_norm.png,0.7,0.6011,alien2,TRUE,2,0.205253707,119,1,0.7,m,0.7677,,,,,,,,,,,,,,,,,,,,,,,,,,,,,,,,,
645197,2023-11-09_11h16.51.342,two_step_task_legacy,2022.2.4,Win32,60.37553583,11,learning,0,TRUE,TRUE,2,0.314843782,purple,x,0,263,263,263,1,0.3,0.7,0.6,0.4,FALSE,resources/alien3_norm.png,0.6,resources/alien4_norm.png,0.4,0.4171,alien3,TRUE,3,0.713525632,119,0,0.6,x,0.7521,,,,,,,,,,,,,,,,,,,,,,,,,,,,,,,,,
645197,2023-11-09_11h16.51.342,two_step_task_legacy,2022.2.4,Win32,60.37553583,11,learning,1,TRUE,TRUE,2,0.767401592,purple,m,0,264,264,264,1,0.3,0.7,0.6,0.4,FALSE,resources/alien3_norm.png,0.6,resources/alien4_norm.png,0.4,0.6645,alien4,TRUE,2,0.357250591,120,1,0.4,m,0.6781,,,,,,,,,,,,,,,,,,,,,,,,,,,,,,,,,
645197,2023-11-09_11h16.51.342,two_step_task_legacy,2022.2.4,Win32,60.37553583,11,learning,0,TRUE,TRUE,2,0.093823019,purple,x,0,265,265,265,1,0.3,0.7,0.6,0.4,TRUE,resources/alien4_norm.png,0.4,resources/alien3_norm.png,0.6,0.5778,alien4,TRUE,3,0.979044762,120,0,0.4,x,0.4916,,,,,,,,,,,,,,,,,,,,,,,,,,,,,,,,,
645197,2023-11-09_11h16.51.342,two_step_task_legacy,2022.2.4,Win32,60.37553583,11,learning,0,TRUE,TRUE,3,0.202120401,red,m,0,266,266,266,1,0.3,0.7,0.6,0.4,FALSE,resources/alien1_norm.png,0.3,resources/alien2_norm.png,0.7,0.4907,alien2,TRUE,2,0.541169079,121,1,0.7,m,0.6667,,,,,,,,,,,,,,,,,,,,,,,,,,,,,,,,,
645197,2023-11-09_11h16.51.342,two_step_task_legacy,2022.2.4,Win32,60.37553583,11,learning,0,TRUE,TRUE,3,0.112652737,red,m,0,267,267,267,1,0.3,0.7,0.6,0.4,FALSE,resources/alien1_norm.png,0.3,resources/alien2_norm.png,0.7,0.4843,alien2,TRUE,2,0.633090044,122,1,0.7,m,0.3679,,,,,,,,,,,,,,,,,,,,,,,,,,,,,,,,,
645197,2023-11-09_11h16.51.342,two_step_task_legacy,2022.2.4,Win32,60.37553583,11,learning,0,TRUE,TRUE,3,0.565413616,red,m,0,268,268,268,1,0.3,0.7,0.6,0.4,FALSE,resources/alien1_norm.png,0.3,resources/alien2_norm.png,0.7,0.3259,alien2,TRUE,2,0.176532522,123,1,0.7,m,0.3676,,,,,,,,,,,,,,,,,,,,,,,,,,,,,,,,,
645197,2023-11-09_11h16.51.342,two_step_task_legacy,2022.2.4,Win32,60.37553583,11,learning,0,TRUE,TRUE,3,0.400450332,red,m,0,269,269,269,1,0.3,0.7,0.6,0.4,FALSE,resources/alien1_norm.png,0.3,resources/alien2_norm.png,0.7,1.0004,alien2,TRUE,3,0.982223593,123,0,0.7,m,0.8178,,,,,,,,,,,,,,,,,,,,,,,,,,,,,,,,,
645197,2023-11-09_11h16.51.342,two_step_task_legacy,2022.2.4,Win32,60.37553583,11,learning,1,TRUE,TRUE,2,0.724304812,purple,m,0,270,270,270,1,0.3,0.7,0.6,0.4,FALSE,resources/alien3_norm.png,0.6,resources/alien4_norm.png,0.4,0.2833,alien3,TRUE,2,0.455256726,124,1,0.6,x,1.3949,,,,,,,,,,,,,,,,,,,,,,,,,,,,,,,,,
645197,2023-11-09_11h16.51.342,two_step_task_legacy,2022.2.4,Win32,60.37553583,11,learning,0,TRUE,TRUE,2,0.670893598,purple,x,0,271,271,271,1,0.3,0.7,0.6,0.4,TRUE,resources/alien4_norm.png,0.4,resources/alien3_norm.png,0.6,0.2248,alien3,TRUE,3,0.639994441,124,0,0.6,m,0.704,,,,,,,,,,,,,,,,,,,,,,,,,,,,,,,,,
645197,2023-11-09_11h16.51.342,two_step_task_legacy,2022.2.4,Win32,60.37553583,11,learning,0,TRUE,TRUE,3,0.017505055,red,m,0,272,272,272,1,0.3,0.7,0.6,0.4,FALSE,resources/alien1_norm.png,0.3,resources/alien2_norm.png,0.7,0.5759,alien2,TRUE,2,0.447350244,125,1,0.7,m,0.3287,,,,,,,,,,,,,,,,,,,,,,,,,,,,,,,,,
645197,2023-11-09_11h16.51.342,two_step_task_legacy,2022.2.4,Win32,60.37553583,11,learning,1,TRUE,TRUE,3,0.753836717,red,x,0,273,273,273,1,0.3,0.7,0.6,0.4,FALSE,resources/alien1_norm.png,0.3,resources/alien2_norm.png,0.7,0.3085,alien2,TRUE,3,0.961994799,125,0,0.7,m,0.7711,,,,,,,,,,,,,,,,,,,,,,,,,,,,,,,,,
645197,2023-11-09_11h16.51.342,two_step_task_legacy,2022.2.4,Win32,60.37553583,11,learning,0,TRUE,TRUE,3,0.486529742,red,m,0,274,274,274,1,0.3,0.7,0.6,0.4,FALSE,resources/alien1_norm.png,0.3,resources/alien2_norm.png,0.7,0.6024,alien2,TRUE,2,0.110187124,126,1,0.7,m,0.304,,,,,,,,,,,,,,,,,,,,,,,,,,,,,,,,,
645197,2023-11-09_11h16.51.342,two_step_task_legacy,2022.2.4,Win32,60.37553583,11,learning,0,TRUE,TRUE,3,0.495440855,red,m,0,275,275,275,1,0.3,0.7,0.6,0.4,TRUE,resources/alien2_norm.png,0.7,resources/alien1_norm.png,0.3,0.3563,alien2,TRUE,2,0.146069441,127,1,0.7,x,2.2885,,,,,,,,,,,,,,,,,,,,,,,,,,,,,,,,,
645197,2023-11-09_11h16.51.342,two_step_task_legacy,2022.2.4,Win32,60.37553583,11,learning,1,TRUE,TRUE,3,0.849928678,red,x,0,276,276,276,1,0.3,0.7,0.6,0.4,FALSE,resources/alien1_norm.png,0.3,resources/alien2_norm.png,0.7,0.551,alien1,TRUE,2,0.144244772,128,1,0.3,x,0.9004,,,,,,,,,,,,,,,,,,,,,,,,,,,,,,,,,
645197,2023-11-09_11h16.51.342,two_step_task_legacy,2022.2.4,Win32,60.37553583,11,learning,0,TRUE,TRUE,3,0.362912253,red,m,0,277,277,277,1,0.3,0.7,0.6,0.4,TRUE,resources/alien2_norm.png,0.7,resources/alien1_norm.png,0.3,0.5673,alien2,TRUE,2,0.679394345,129,1,0.7,x,0.6076,,,,,,,,,,,,,,,,,,,,,,,,,,,,,,,,,
645197,2023-11-09_11h16.51.342,two_step_task_legacy,2022.2.4,Win32,60.37553583,11,learning,0,TRUE,TRUE,2,0.546082435,purple,x,0,278,278,278,1,0.3,0.7,0.6,0.4,FALSE,resources/alien3_norm.png,0.6,resources/alien4_norm.png,0.4,0.4506,alien4,TRUE,3,0.597564548,129,0,0.4,m,1.3506,,,,,,,,,,,,,,,,,,,,,,,,,,,,,,,,,
645197,2023-11-09_11h16.51.342,two_step_task_legacy,2022.2.4,Win32,60.37553583,11,learning,0,TRUE,TRUE,3,0.562531413,red,m,0,279,279,279,1,0.3,0.7,0.6,0.4,FALSE,resources/alien1_norm.png,0.3,resources/alien2_norm.png,0.7,0.4515,alien2,TRUE,3,0.737177098,129,0,0.7,m,0.5836,,,,,,,,,,,,,,,,,,,,,,,,,,,,,,,,,
645197,2023-11-09_11h16.51.342,two_step_task_legacy,2022.2.4,Win32,60.37553583,11,learning,0,TRUE,TRUE,2,0.294374991,purple,x,0,280,280,280,1,0.3,0.7,0.6,0.4,FALSE,resources/alien3_norm.png,0.6,resources/alien4_norm.png,0.4,0.5842,alien3,TRUE,2,0.595781497,130,1,0.6,x,0.4038,,,,,,,,,,,,,,,,,,,,,,,,,,,,,,,,,
645197,2023-11-09_11h16.51.342,two_step_task_legacy,2022.2.4,Win32,60.37553583,11,learning,0,TRUE,TRUE,2,0.269682954,purple,x,0,281,281,281,1,0.3,0.7,0.6,0.4,TRUE,resources/alien4_norm.png,0.4,resources/alien3_norm.png,0.6,0.2944,alien3,TRUE,3,0.895146039,130,0,0.6,m,0.8068,,,,,,,,,,,,,,,,,,,,,,,,,,,,,,,,,
645197,2023-11-09_11h16.51.342,two_step_task_legacy,2022.2.4,Win32,60.37553583,11,learning,1,TRUE,TRUE,3,0.77724998,red,x,0,282,282,282,1,0.3,0.7,0.6,0.4,TRUE,resources/alien2_norm.png,0.7,resources/alien1_norm.png,0.3,0.3631,alien2,TRUE,3,0.98351131,130,0,0.7,x,1.6117,,,,,,,,,,,,,,,,,,,,,,,,,,,,,,,,,
645197,2023-11-09_11h16.51.342,two_step_task_legacy,2022.2.4,Win32,60.37553583,11,learning,1,TRUE,TRUE,2,0.72301382,purple,m,0,283,283,283,1,0.3,0.7,0.6,0.4,FALSE,resources/alien3_norm.png,0.6,resources/alien4_norm.png,0.4,0.3518,alien4,TRUE,3,0.532941078,130,0,0.4,m,2.3405,,,,,,,,,,,,,,,,,,,,,,,,,,,,,,,,,
645197,2023-11-09_11h16.51.342,two_step_task_legacy,2022.2.4,Win32,60.37553583,11,learning,0,TRUE,TRUE,2,0.166882051,purple,x,0,284,284,284,1,0.3,0.7,0.6,0.4,FALSE,resources/alien3_norm.png,0.6,resources/alien4_norm.png,0.4,0.3285,alien4,TRUE,2,0.00391336,131,1,0.4,m,0.4343,,,,,,,,,,,,,,,,,,,,,,,,,,,,,,,,,
645197,2023-11-09_11h16.51.342,two_step_task_legacy,2022.2.4,Win32,60.37553583,11,learning,0,TRUE,TRUE,3,0.339784561,red,m,0,285,285,285,1,0.3,0.7,0.6,0.4,FALSE,resources/alien1_norm.png,0.3,resources/alien2_norm.png,0.7,0.3338,alien2,TRUE,2,0.67718303,132,1,0.7,m,0.7668,,,,,,,,,,,,,,,,,,,,,,,,,,,,,,,,,
645197,2023-11-09_11h16.51.342,two_step_task_legacy,2022.2.4,Win32,60.37553583,11,learning,0,TRUE,TRUE,3,0.297066893,red,m,0,286,286,286,1,0.3,0.7,0.6,0.4,FALSE,resources/alien1_norm.png,0.3,resources/alien2_norm.png,0.7,0.2832,alien2,TRUE,2,0.545838763,133,1,0.7,m,0.8544,,,,,,,,,,,,,,,,,,,,,,,,,,,,,,,,,
645197,2023-11-09_11h16.51.342,two_step_task_legacy,2022.2.4,Win32,60.37553583,11,learning,0,TRUE,TRUE,3,0.245165941,red,m,0,287,287,287,1,0.3,0.7,0.6,0.4,FALSE,resources/alien1_norm.png,0.3,resources/alien2_norm.png,0.7,0.2774,alien2,TRUE,2,0.14412696,134,1,0.7,m,0.7683,,,,,,,,,,,,,,,,,,,,,,,,,,,,,,,,,
645197,2023-11-09_11h16.51.342,two_step_task_legacy,2022.2.4,Win32,60.37553583,11,learning,0,TRUE,TRUE,3,0.093957187,red,m,0,288,288,288,1,0.3,0.7,0.6,0.4,FALSE,resources/alien1_norm.png,0.3,resources/alien2_norm.png,0.7,0.2873,alien2,TRUE,3,0.778438208,134,0,0.7,m,0.4463,,,,,,,,,,,,,,,,,,,,,,,,,,,,,,,,,
645197,2023-11-09_11h16.51.342,two_step_task_legacy,2022.2.4,Win32,60.37553583,11,learning,0,TRUE,TRUE,3,0.226851928,red,m,0,289,289,289,1,0.3,0.7,0.6,0.4,FALSE,resources/alien1_norm.png,0.3,resources/alien2_norm.png,0.7,0.5741,alien2,TRUE,2,0.45657057,135,1,0.7,m,0.5393,,,,,,,,,,,,,,,,,,,,,,,,,,,,,,,,,
645197,2023-11-09_11h16.51.342,two_step_task_legacy,2022.2.4,Win32,60.37553583,11,learning,1,TRUE,TRUE,2,0.872997471,purple,m,0,290,290,290,1,0.3,0.7,0.6,0.4,FALSE,resources/alien3_norm.png,0.6,resources/alien4_norm.png,0.4,0.3508,alien4,TRUE,3,0.843411504,135,0,0.4,m,2.7856,,,,,,,,,,,,,,,,,,,,,,,,,,,,,,,,,
645197,2023-11-09_11h16.51.342,two_step_task_legacy,2022.2.4,Win32,60.37553583,11,learning,0,TRUE,TRUE,3,0.572136951,red,m,0,291,291,291,1,0.3,0.7,0.6,0.4,TRUE,resources/alien2_norm.png,0.7,resources/alien1_norm.png,0.3,0.7744,alien2,TRUE,3,0.772832334,135,0,0.7,x,0.8542,,,,,,,,,,,,,,,,,,,,,,,,,,,,,,,,,
