participant,date,expName,psychopyVersion,OS,frameRate,payoff_list,phase,rare_transition,left_alien,left_probabilty,right_alien,right_probabilty,select_sp,show_alien,rocket_trans,rand_sp,planet,key_resp_exp.keys,key_resp_exp.rt,chosen_alien,select_alien,transmoney,rand_money,totalgold,trialgain,probs,key_resp_exp_alien.keys,key_resp_exp_alien.rt,loop_exp.thisRepN,loop_exp.thisTrialN,loop_exp.thisN,loop_exp.thisIndex,loop_exp.ran,p1,p2,p3,p4,flip_sides,static_probability_left,static_probability_right,key_resp_probe.keys,key_resp_probe.rt,accuracy,probe_loop.thisRepN,probe_loop.thisTrialN,probe_loop.thisN,probe_loop.thisIndex,probe_loop.ran,probe_la,probe_ra,key_resp.keys,key_resp.rt,slider.response,slider.rt,post_loop.thisRepN,post_loop.thisTrialN,post_loop.thisN,post_loop.thisIndex,post_loop.ran,text_up,pos_text_up,text_down,pos_img_left_up,left_up_img,right_up_img,left_down_img_1,left_down_img_2,right_down_img_1,right_down_img_2,size,show_slider
GOSH_A6,2023-11-10_09h54.46.496,two_step_task_legacy,2022.2.4,Win32,60.11060351,,,,,,,,,,,,,,,,,,,,,,,,,,,,,,,,,,,,,,,,,,,,,,,,,,,,,,,,,,,,,,,,,,
GOSH_A6,2023-11-10_09h54.46.496,two_step_task_legacy,2022.2.4,Win32,60.11060351,,,,,,,,,,,,,,,,,,,,,,,,,,,,,,,,,,,,,,,,,,,,,,,,,,,,,,,,,,,,,,,,,,
GOSH_A6,2023-11-10_09h54.46.496,two_step_task_legacy,2022.2.4,Win32,60.11060351,,,,,,,,,,,,,,,,,,,,,,,,,,,,,,,,,,,,,,,,,,,,,,,,,,,,,,,,,,,,,,,,,,
GOSH_A6,2023-11-10_09h54.46.496,two_step_task_legacy,2022.2.4,Win32,60.11060351,,,,,,,,,,,,,,,,,,,,,,,,,,,,,,,,,,,,,,,,,,,,,,,,,,,,,,,,,,,,,,,,,,
GOSH_A6,2023-11-10_09h54.46.496,two_step_task_legacy,2022.2.4,Win32,60.11060351,,,,,,,,,,,,,,,,,,,,,,,,,,,,,,,,,,,,,,,,,,,,,,,,,,,,,,,,,,,,,,,,,,
GOSH_A6,2023-11-10_09h54.46.496,two_step_task_legacy,2022.2.4,Win32,60.11060351,,,,,,,,,,,,,,,,,,,,,,,,,,,,,,,,,,,,,,,,,,,,,,,,,,,,,,,,,,,,,,,,,,
GOSH_A6,2023-11-10_09h54.46.496,two_step_task_legacy,2022.2.4,Win32,60.11060351,,,,,,,,,,,,,,,,,,,,,,,,,,,,,,,,,,,,,,,,,,,,,,,,,,,,,,,,,,,,,,,,,,
GOSH_A6,2023-11-10_09h54.46.496,two_step_task_legacy,2022.2.4,Win32,60.11060351,,,,,,,,,,,,,,,,,,,,,,,,,,,,,,,,,,,,,,,,,,,,,,,,,,,,,,,,,,,,,,,,,,
GOSH_A6,2023-11-10_09h54.46.496,two_step_task_legacy,2022.2.4,Win32,60.11060351,,,,,,,,,,,,,,,,,,,,,,,,,,,,,,,,,,,,,,,,,,,,,,,,,,,,,,,,,,,,,,,,,,
GOSH_A6,2023-11-10_09h54.46.496,two_step_task_legacy,2022.2.4,Win32,60.11060351,,,,,,,,,,,,,,,,,,,,,,,,,,,,,,,,,,,,,,,,,,,,,,,,,,,,,,,,,,,,,,,,,,
GOSH_A6,2023-11-10_09h54.46.496,two_step_task_legacy,2022.2.4,Win32,60.11060351,,,,,,,,,,,,,,,,,,,,,,,,,,,,,,,,,,,,,,,,,,,,,,,,,,,,,,,,,,,,,,,,,,
GOSH_A6,2023-11-10_09h54.46.496,two_step_task_legacy,2022.2.4,Win32,60.11060351,41,learning,0,resources/alien4_norm.png,0.27950747,resources/alien3_norm.png,0.443858228,TRUE,TRUE,2,0.503157166,purple,x,0.9444,alien4,TRUE,3,0.70368135,0,0,0.27950747,x,0.7065,0,0,0,0,1,0.592919234,0.725900905,0.443858228,0.27950747,TRUE,,,,,,,,,,,,,,,,,,,,,,,,,,,,,,,,,
GOSH_A6,2023-11-10_09h54.46.496,two_step_task_legacy,2022.2.4,Win32,60.11060351,41,learning,1,resources/alien1_norm.png,0.59679033,resources/alien2_norm.png,0.744384228,TRUE,TRUE,3,0.883420329,red,x,1.7985,alien1,TRUE,2,0.33572519,1,1,0.59679033,x,1.0271,0,1,1,1,1,0.59679033,0.744384228,0.45423091,0.295972889,FALSE,,,,,,,,,,,,,,,,,,,,,,,,,,,,,,,,,
GOSH_A6,2023-11-10_09h54.46.496,two_step_task_legacy,2022.2.4,Win32,60.11060351,41,learning,1,resources/alien4_norm.png,0.31700386,resources/alien3_norm.png,0.455634511,TRUE,TRUE,2,0.807155666,purple,m,0.6012,alien3,TRUE,3,0.832809366,1,0,0.455634511,m,1.2233,0,2,2,2,1,0.60177345,0.733574025,0.455634511,0.31700386,TRUE,,,,,,,,,,,,,,,,,,,,,,,,,,,,,,,,,
GOSH_A6,2023-11-10_09h54.46.496,two_step_task_legacy,2022.2.4,Win32,60.11060351,41,learning,1,resources/alien2_norm.png,0.736493304,resources/alien1_norm.png,0.575786997,TRUE,TRUE,3,0.806758265,red,x,0.6116,alien1,TRUE,2,0.212747834,2,1,0.575786997,m,1.0206,0,3,3,3,1,0.575786997,0.736493304,0.471841934,0.31795339,TRUE,,,,,,,,,,,,,,,,,,,,,,,,,,,,,,,,,
GOSH_A6,2023-11-10_09h54.46.496,two_step_task_legacy,2022.2.4,Win32,60.11060351,41,learning,0,resources/alien3_norm.png,0.442864037,resources/alien4_norm.png,0.314743689,TRUE,TRUE,2,0.69488505,purple,x,0.3824,alien3,TRUE,3,0.978673755,2,0,0.442864037,x,1.0902,0,4,4,4,1,0.567847603,0.732422245,0.442864037,0.314743689,FALSE,,,,,,,,,,,,,,,,,,,,,,,,,,,,,,,,,
GOSH_A6,2023-11-10_09h54.46.496,two_step_task_legacy,2022.2.4,Win32,60.11060351,41,learning,0,resources/alien3_norm.png,0.425542419,resources/alien4_norm.png,0.331932433,TRUE,TRUE,2,0.357088096,purple,x,1.1136,alien4,TRUE,2,0.159092252,3,1,0.331932433,m,1.7584,0,5,5,5,1,0.613520007,0.719024184,0.425542419,0.331932433,FALSE,,,,,,,,,,,,,,,,,,,,,,,,,,,,,,,,,
GOSH_A6,2023-11-10_09h54.46.496,two_step_task_legacy,2022.2.4,Win32,60.11060351,41,learning,0,resources/alien2_norm.png,0.703346131,resources/alien1_norm.png,0.646413289,TRUE,TRUE,3,0.167238992,red,m,0.8649,alien1,TRUE,3,0.774041386,3,0,0.646413289,m,0.5554,0,6,6,6,1,0.646413289,0.703346131,0.45882479,0.335203637,TRUE,,,,,,,,,,,,,,,,,,,,,,,,,,,,,,,,,
GOSH_A6,2023-11-10_09h54.46.496,two_step_task_legacy,2022.2.4,Win32,60.11060351,41,learning,1,resources/alien3_norm.png,0.470030307,resources/alien4_norm.png,0.317344228,TRUE,TRUE,2,0.78225972,purple,m,0.9295,alien4,TRUE,3,0.605202863,3,0,0.317344228,m,1.287,0,7,7,7,1,0.656173784,0.720597765,0.470030307,0.317344228,FALSE,,,,,,,,,,,,,,,,,,,,,,,,,,,,,,,,,
GOSH_A6,2023-11-10_09h54.46.496,two_step_task_legacy,2022.2.4,Win32,60.11060351,41,learning,0,resources/alien2_norm.png,0.740934325,resources/alien1_norm.png,0.679642094,TRUE,TRUE,3,0.066510113,red,m,0.5013,alien1,TRUE,2,0.197450963,4,1,0.679642094,m,0.745,0,8,8,8,1,0.679642094,0.740934325,0.484620776,0.274606094,TRUE,,,,,,,,,,,,,,,,,,,,,,,,,,,,,,,,,
GOSH_A6,2023-11-10_09h54.46.496,two_step_task_legacy,2022.2.4,Win32,60.11060351,41,learning,0,resources/alien1_norm.png,0.688180407,resources/alien2_norm.png,0.689489059,TRUE,TRUE,3,0.247372879,red,m,0.4944,alien1,TRUE,2,0.397788335,5,1,0.688180407,x,0.7502,0,9,9,9,1,0.688180407,0.689489059,0.493984152,0.279361174,FALSE,,,,,,,,,,,,,,,,,,,,,,,,,,,,,,,,,
GOSH_A6,2023-11-10_09h54.46.496,two_step_task_legacy,2022.2.4,Win32,60.11060351,41,learning,0,resources/alien2_norm.png,0.672474435,resources/alien1_norm.png,0.722256697,TRUE,TRUE,3,0.013887566,red,m,0.6361,alien1,TRUE,2,0.238721771,6,1,0.722256697,m,0.7794,0,10,10,10,1,0.722256697,0.672474435,0.483038561,0.282942862,TRUE,,,,,,,,,,,,,,,,,,,,,,,,,,,,,,,,,
GOSH_A6,2023-11-10_09h54.46.496,two_step_task_legacy,2022.2.4,Win32,60.11060351,41,learning,0,resources/alien2_norm.png,0.692623887,resources/alien1_norm.png,0.684969653,TRUE,TRUE,3,0.365577505,red,m,0.8117,alien1,TRUE,3,0.837317552,6,0,0.684969653,m,0.763,0,11,11,11,1,0.684969653,0.692623887,0.510853538,0.259019373,TRUE,,,,,,,,,,,,,,,,,,,,,,,,,,,,,,,,,
GOSH_A6,2023-11-10_09h54.46.496,two_step_task_legacy,2022.2.4,Win32,60.11060351,41,learning,1,resources/alien4_norm.png,0.255717844,resources/alien3_norm.png,0.479761531,TRUE,TRUE,2,0.77937535,purple,m,0.3701,alien4,TRUE,3,0.459743308,6,0,0.255717844,x,1.1728,0,12,12,12,1,0.659633046,0.715817289,0.479761531,0.255717844,TRUE,,,,,,,,,,,,,,,,,,,,,,,,,,,,,,,,,
GOSH_A6,2023-11-10_09h54.46.496,two_step_task_legacy,2022.2.4,Win32,60.11060351,41,learning,1,resources/alien4_norm.png,0.298984932,resources/alien3_norm.png,0.486310925,TRUE,TRUE,2,0.738158114,purple,m,0.5395,alien3,TRUE,3,0.497006621,6,0,0.486310925,m,1.4684,0,13,13,13,1,0.640778901,0.746070273,0.486310925,0.298984932,TRUE,,,,,,,,,,,,,,,,,,,,,,,,,,,,,,,,,
GOSH_A6,2023-11-10_09h54.46.496,two_step_task_legacy,2022.2.4,Win32,60.11060351,41,learning,0,resources/alien1_norm.png,0.609843847,resources/alien2_norm.png,0.745244975,TRUE,TRUE,3,0.614384576,red,m,0.6043,alien1,TRUE,2,0.019319642,7,1,0.609843847,x,0.7995,0,14,14,14,1,0.609843847,0.745244975,0.483221717,0.292136448,FALSE,,,,,,,,,,,,,,,,,,,,,,,,,,,,,,,,,
GOSH_A6,2023-11-10_09h54.46.496,two_step_task_legacy,2022.2.4,Win32,60.11060351,41,learning,0,resources/alien2_norm.png,0.742194192,resources/alien1_norm.png,0.647958318,TRUE,TRUE,3,0.297940473,red,m,0.5704,alien1,TRUE,2,0.152566604,8,1,0.647958318,m,0.5961,0,15,15,15,1,0.647958318,0.742194192,0.475561931,0.315615459,TRUE,,,,,,,,,,,,,,,,,,,,,,,,,,,,,,,,,
GOSH_A6,2023-11-10_09h54.46.496,two_step_task_legacy,2022.2.4,Win32,60.11060351,41,learning,1,resources/alien4_norm.png,0.348756417,resources/alien3_norm.png,0.453043104,TRUE,TRUE,2,0.810617762,purple,m,0.5612,alien3,TRUE,3,0.97346414,8,0,0.453043104,m,1.5086,0,16,16,16,1,0.645843171,0.723966215,0.453043104,0.348756417,TRUE,,,,,,,,,,,,,,,,,,,,,,,,,,,,,,,,,
GOSH_A6,2023-11-10_09h54.46.496,two_step_task_legacy,2022.2.4,Win32,60.11060351,41,learning,0,resources/alien1_norm.png,0.692166841,resources/alien2_norm.png,0.722635815,TRUE,TRUE,3,0.667510105,red,m,0.5605,alien1,TRUE,2,0.158121524,9,1,0.692166841,x,0.6588,0,17,17,17,1,0.692166841,0.722635815,0.463953484,0.34175623,FALSE,,,,,,,,,,,,,,,,,,,,,,,,,,,,,,,,,
GOSH_A6,2023-11-10_09h54.46.496,two_step_task_legacy,2022.2.4,Win32,60.11060351,41,learning,0,resources/alien2_norm.png,0.731280491,resources/alien1_norm.png,0.705363788,TRUE,TRUE,3,0.158822139,red,m,0.4676,alien1,TRUE,2,0.050714379,10,1,0.705363788,m,0.5497,0,18,18,18,1,0.705363788,0.731280491,0.44983954,0.361794708,TRUE,,,,,,,,,,,,,,,,,,,,,,,,,,,,,,,,,
GOSH_A6,2023-11-10_09h54.46.496,two_step_task_legacy,2022.2.4,Win32,60.11060351,41,learning,0,resources/alien1_norm.png,0.638524244,resources/alien2_norm.png,0.731469643,TRUE,TRUE,3,0.641587794,red,m,0.3776,alien1,TRUE,2,0.201569153,11,1,0.638524244,x,0.6043,0,19,19,19,1,0.638524244,0.731469643,0.432081966,0.373358192,FALSE,,,,,,,,,,,,,,,,,,,,,,,,,,,,,,,,,
GOSH_A6,2023-11-10_09h54.46.496,two_step_task_legacy,2022.2.4,Win32,60.11060351,41,learning,1,resources/alien3_norm.png,0.440889844,resources/alien4_norm.png,0.370049194,TRUE,TRUE,2,0.955184863,purple,m,0.5226,alien4,TRUE,3,0.863294852,11,0,0.370049194,m,1.3431,0,20,20,20,1,0.6317315,0.722503558,0.440889844,0.370049194,FALSE,,,,,,,,,,,,,,,,,,,,,,,,,,,,,,,,,
GOSH_A6,2023-11-10_09h54.46.496,two_step_task_legacy,2022.2.4,Win32,60.11060351,41,learning,0,resources/alien1_norm.png,0.644665474,resources/alien2_norm.png,0.721895684,TRUE,TRUE,3,0.00848045,red,m,0.534,alien1,TRUE,2,0.609183344,12,1,0.644665474,x,0.5365,0,21,21,21,1,0.644665474,0.721895684,0.444949016,0.385190721,FALSE,,,,,,,,,,,,,,,,,,,,,,,,,,,,,,,,,
GOSH_A6,2023-11-10_09h54.46.496,two_step_task_legacy,2022.2.4,Win32,60.11060351,41,learning,0,resources/alien1_norm.png,0.666624831,resources/alien2_norm.png,0.705702366,TRUE,TRUE,3,0.505850088,red,m,0.4614,alien1,TRUE,3,0.805387596,12,0,0.666624831,x,0.7439,0,22,22,22,1,0.666624831,0.705702366,0.41870989,0.352113387,FALSE,,,,,,,,,,,,,,,,,,,,,,,,,,,,,,,,,
GOSH_A6,2023-11-10_09h54.46.496,two_step_task_legacy,2022.2.4,Win32,60.11060351,41,learning,0,resources/alien1_norm.png,0.664096591,resources/alien2_norm.png,0.678602803,TRUE,TRUE,3,0.1528049,red,m,0.523,alien1,TRUE,3,0.982302793,12,0,0.664096591,x,0.8007,0,23,23,23,1,0.664096591,0.678602803,0.465073071,0.307119567,FALSE,,,,,,,,,,,,,,,,,,,,,,,,,,,,,,,,,
GOSH_A6,2023-11-10_09h54.46.496,two_step_task_legacy,2022.2.4,Win32,60.11060351,41,learning,0,resources/alien2_norm.png,0.666643436,resources/alien1_norm.png,0.680750687,TRUE,TRUE,3,0.191785446,red,m,0.3889,alien2,TRUE,2,0.049702141,13,1,0.666643436,x,1.0353,0,24,24,24,1,0.680750687,0.666643436,0.491099525,0.327636045,TRUE,,,,,,,,,,,,,,,,,,,,,,,,,,,,,,,,,
GOSH_A6,2023-11-10_09h54.46.496,two_step_task_legacy,2022.2.4,Win32,60.11060351,41,learning,0,resources/alien2_norm.png,0.678938875,resources/alien1_norm.png,0.721158618,TRUE,TRUE,3,0.645850968,red,m,0.5102,alien2,TRUE,2,0.379849289,14,1,0.678938875,x,0.7441,0,25,25,25,1,0.721158618,0.678938875,0.515332064,0.339488743,TRUE,,,,,,,,,,,,,,,,,,,,,,,,,,,,,,,,,
GOSH_A6,2023-11-10_09h54.46.496,two_step_task_legacy,2022.2.4,Win32,60.11060351,41,learning,1,resources/alien3_norm.png,0.536516343,resources/alien4_norm.png,0.306057792,TRUE,TRUE,2,0.770455719,purple,m,0.3712,alien3,TRUE,3,0.950688641,14,0,0.536516343,x,1.3082,0,26,26,26,1,0.726141219,0.688257877,0.536516343,0.306057792,FALSE,,,,,,,,,,,,,,,,,,,,,,,,,,,,,,,,,
GOSH_A6,2023-11-10_09h54.46.496,two_step_task_legacy,2022.2.4,Win32,60.11060351,41,learning,1,resources/alien4_norm.png,0.324762577,resources/alien3_norm.png,0.586460321,TRUE,TRUE,2,0.724180527,purple,m,0.5457,alien3,TRUE,2,0.406004808,15,1,0.586460321,m,1.7619,0,27,27,27,1,0.73348975,0.708654251,0.586460321,0.324762577,TRUE,,,,,,,,,,,,,,,,,,,,,,,,,,,,,,,,,
GOSH_A6,2023-11-10_09h54.46.496,two_step_task_legacy,2022.2.4,Win32,60.11060351,41,learning,0,resources/alien2_norm.png,0.695447607,resources/alien1_norm.png,0.741945791,TRUE,TRUE,3,0.288102697,red,m,0.4896,alien2,TRUE,2,0.455716652,16,1,0.695447607,x,0.8404,0,28,28,28,1,0.741945791,0.695447607,0.560037831,0.324394061,TRUE,,,,,,,,,,,,,,,,,,,,,,,,,,,,,,,,,
GOSH_A6,2023-11-10_09h54.46.496,two_step_task_legacy,2022.2.4,Win32,60.11060351,41,learning,0,resources/alien1_norm.png,0.741235567,resources/alien2_norm.png,0.647184722,TRUE,TRUE,3,0.553236805,red,m,0.4181,alien2,TRUE,3,0.718464054,16,0,0.647184722,m,0.7231,0,29,29,29,1,0.741235567,0.647184722,0.536509411,0.324567173,FALSE,,,,,,,,,,,,,,,,,,,,,,,,,,,,,,,,,
GOSH_A6,2023-11-10_09h54.46.496,two_step_task_legacy,2022.2.4,Win32,60.11060351,41,learning,0,resources/alien1_norm.png,0.711120899,resources/alien2_norm.png,0.682287617,TRUE,TRUE,3,0.349775242,red,m,0.5293,alien2,TRUE,2,0.660034689,17,1,0.682287617,m,0.5591,0,30,30,30,1,0.711120899,0.682287617,0.531370322,0.374347067,FALSE,,,,,,,,,,,,,,,,,,,,,,,,,,,,,,,,,
GOSH_A6,2023-11-10_09h54.46.496,two_step_task_legacy,2022.2.4,Win32,60.11060351,41,learning,1,resources/alien3_norm.png,0.531256282,resources/alien4_norm.png,0.366194808,TRUE,TRUE,2,0.809785276,purple,m,0.4665,alien3,TRUE,3,0.717202072,17,0,0.531256282,x,1.078,0,31,31,31,1,0.703930664,0.670612165,0.531256282,0.366194808,FALSE,,,,,,,,,,,,,,,,,,,,,,,,,,,,,,,,,
GOSH_A6,2023-11-10_09h54.46.496,two_step_task_legacy,2022.2.4,Win32,60.11060351,41,learning,0,resources/alien1_norm.png,0.747483385,resources/alien2_norm.png,0.676785204,TRUE,TRUE,3,0.293251401,red,m,0.5167,alien2,TRUE,2,0.415239285,18,1,0.676785204,m,0.7057,0,32,32,32,1,0.747483385,0.676785204,0.520215803,0.386285095,FALSE,,,,,,,,,,,,,,,,,,,,,,,,,,,,,,,,,
GOSH_A6,2023-11-10_09h54.46.496,two_step_task_legacy,2022.2.4,Win32,60.11060351,41,learning,0,resources/alien2_norm.png,0.641874978,resources/alien1_norm.png,0.74387237,TRUE,TRUE,3,0.688803979,red,m,0.6001,alien2,TRUE,2,0.029929622,19,1,0.641874978,x,1.1572,0,33,33,33,1,0.74387237,0.641874978,0.524958272,0.407380993,TRUE,,,,,,,,,,,,,,,,,,,,,,,,,,,,,,,,,
GOSH_A6,2023-11-10_09h54.46.496,two_step_task_legacy,2022.2.4,Win32,60.11060351,41,learning,0,resources/alien2_norm.png,0.647869521,resources/alien1_norm.png,0.73213969,TRUE,TRUE,3,0.698907974,red,m,0.4167,alien2,TRUE,2,0.381088237,20,1,0.647869521,x,0.6164,0,34,34,34,1,0.73213969,0.647869521,0.501933636,0.430053027,TRUE,,,,,,,,,,,,,,,,,,,,,,,,,,,,,,,,,
GOSH_A6,2023-11-10_09h54.46.496,two_step_task_legacy,2022.2.4,Win32,60.11060351,41,learning,1,resources/alien4_norm.png,0.408820591,resources/alien3_norm.png,0.485008195,TRUE,TRUE,2,0.970049044,purple,m,0.44,alien4,TRUE,3,0.793187657,20,0,0.408820591,x,1.2702,0,35,35,35,1,0.735960532,0.661804792,0.485008195,0.408820591,TRUE,,,,,,,,,,,,,,,,,,,,,,,,,,,,,,,,,
GOSH_A6,2023-11-10_09h54.46.496,two_step_task_legacy,2022.2.4,Win32,60.11060351,41,learning,0,resources/alien1_norm.png,0.729661989,resources/alien2_norm.png,0.677064408,TRUE,TRUE,3,0.450178892,red,m,0.5053,alien2,TRUE,2,0.411304214,21,1,0.677064408,m,0.7367,0,36,36,36,1,0.729661989,0.677064408,0.465983699,0.402459854,FALSE,,,,,,,,,,,,,,,,,,,,,,,,,,,,,,,,,
GOSH_A6,2023-11-10_09h54.46.496,two_step_task_legacy,2022.2.4,Win32,60.11060351,41,learning,1,resources/alien3_norm.png,0.509954334,resources/alien4_norm.png,0.406162253,TRUE,TRUE,2,0.77677737,purple,m,0.4206,alien4,TRUE,2,0.008350453,22,1,0.406162253,m,0.9393,0,37,37,37,1,0.707923169,0.652538123,0.509954334,0.406162253,FALSE,,,,,,,,,,,,,,,,,,,,,,,,,,,,,,,,,
GOSH_A6,2023-11-10_09h54.46.496,two_step_task_legacy,2022.2.4,Win32,60.11060351,41,learning,1,resources/alien4_norm.png,0.433014543,resources/alien3_norm.png,0.53675196,TRUE,TRUE,2,0.832400926,purple,m,0.546,alien4,TRUE,2,0.07086322,23,1,0.433014543,x,0.6865,0,38,38,38,1,0.694382959,0.673066329,0.53675196,0.433014543,TRUE,,,,,,,,,,,,,,,,,,,,,,,,,,,,,,,,,
GOSH_A6,2023-11-10_09h54.46.496,two_step_task_legacy,2022.2.4,Win32,60.11060351,41,learning,0,resources/alien2_norm.png,0.662671924,resources/alien1_norm.png,0.686824957,TRUE,TRUE,3,0.248687741,red,m,0.4726,alien2,TRUE,2,0.529317577,24,1,0.662671924,x,0.6734,0,39,39,39,1,0.686824957,0.662671924,0.535677589,0.456735874,TRUE,,,,,,,,,,,,,,,,,,,,,,,,,,,,,,,,,
GOSH_A6,2023-11-10_09h54.46.496,two_step_task_legacy,2022.2.4,Win32,60.11060351,41,learning,0,resources/alien2_norm.png,0.683582687,resources/alien1_norm.png,0.701252715,TRUE,TRUE,3,0.260870216,red,m,0.4542,alien2,TRUE,2,0.037600374,25,1,0.683582687,x,0.8505,0,40,40,40,1,0.701252715,0.683582687,0.514353351,0.444802595,TRUE,,,,,,,,,,,,,,,,,,,,,,,,,,,,,,,,,
GOSH_A6,2023-11-10_09h54.46.496,two_step_task_legacy,2022.2.4,Win32,60.11060351,41,learning,0,resources/alien1_norm.png,0.735883559,resources/alien2_norm.png,0.659710527,TRUE,TRUE,3,0.260390525,red,m,0.3842,alien2,TRUE,3,0.966339914,25,0,0.659710527,m,0.8789,0,41,41,41,1,0.735883559,0.659710527,0.529381359,0.474099865,FALSE,,,,,,,,,,,,,,,,,,,,,,,,,,,,,,,,,
GOSH_A6,2023-11-10_09h54.46.496,two_step_task_legacy,2022.2.4,Win32,60.11060351,41,learning,0,resources/alien2_norm.png,0.656265655,resources/alien1_norm.png,0.698407408,TRUE,TRUE,3,0.593130128,red,m,0.331,alien2,TRUE,3,0.981778337,25,0,0.656265655,x,0.6184,0,42,42,42,1,0.698407408,0.656265655,0.569051894,0.499578503,TRUE,,,,,,,,,,,,,,,,,,,,,,,,,,,,,,,,,
GOSH_A6,2023-11-10_09h54.46.496,two_step_task_legacy,2022.2.4,Win32,60.11060351,41,learning,0,resources/alien1_norm.png,0.7442163,resources/alien2_norm.png,0.635050852,TRUE,TRUE,3,0.584658739,red,m,0.3166,alien1,TRUE,2,0.473725211,26,1,0.7442163,x,0.6448,0,43,43,43,1,0.7442163,0.635050852,0.558922212,0.517139904,FALSE,,,,,,,,,,,,,,,,,,,,,,,,,,,,,,,,,
GOSH_A6,2023-11-10_09h54.46.496,two_step_task_legacy,2022.2.4,Win32,60.11060351,41,learning,1,resources/alien3_norm.png,0.608414695,resources/alien4_norm.png,0.563824608,TRUE,TRUE,2,0.724358241,purple,m,0.3033,alien4,TRUE,3,0.724016365,26,0,0.563824608,m,1.4367,0,44,44,44,1,0.747567615,0.608699053,0.608414695,0.563824608,FALSE,,,,,,,,,,,,,,,,,,,,,,,,,,,,,,,,,
GOSH_A6,2023-11-10_09h54.46.496,two_step_task_legacy,2022.2.4,Win32,60.11060351,41,learning,0,resources/alien1_norm.png,0.732850337,resources/alien2_norm.png,0.616463301,TRUE,TRUE,3,0.175080439,red,m,0.5617,alien1,TRUE,2,0.040529087,27,1,0.732850337,x,0.7415,0,45,45,45,1,0.732850337,0.616463301,0.592031585,0.577261292,FALSE,,,,,,,,,,,,,,,,,,,,,,,,,,,,,,,,,
GOSH_A6,2023-11-10_09h54.46.496,two_step_task_legacy,2022.2.4,Win32,60.11060351,41,learning,1,resources/alien4_norm.png,0.616425469,resources/alien3_norm.png,0.586579464,TRUE,TRUE,2,0.926094865,purple,m,0.3513,alien3,TRUE,3,0.903889537,27,0,0.586579464,m,1.2689,0,46,46,46,1,0.715828642,0.648648698,0.586579464,0.616425469,TRUE,,,,,,,,,,,,,,,,,,,,,,,,,,,,,,,,,
GOSH_A6,2023-11-10_09h54.46.496,two_step_task_legacy,2022.2.4,Win32,60.11060351,41,learning,0,resources/alien2_norm.png,0.648684771,resources/alien1_norm.png,0.701654265,TRUE,TRUE,3,0.165797606,red,m,0.2996,alien1,TRUE,2,0.158542978,28,1,0.701654265,m,0.8368,0,47,47,47,1,0.701654265,0.648684771,0.570981347,0.613264448,TRUE,,,,,,,,,,,,,,,,,,,,,,,,,,,,,,,,,
GOSH_A6,2023-11-10_09h54.46.496,two_step_task_legacy,2022.2.4,Win32,60.11060351,41,learning,0,resources/alien1_norm.png,0.732315949,resources/alien2_norm.png,0.628861012,TRUE,TRUE,3,0.573675938,red,m,0.4147,alien1,TRUE,2,0.681450257,29,1,0.732315949,x,1.1294,0,48,48,48,1,0.732315949,0.628861012,0.623729858,0.633249326,FALSE,,,,,,,,,,,,,,,,,,,,,,,,,,,,,,,,,
GOSH_A6,2023-11-10_09h54.46.496,two_step_task_legacy,2022.2.4,Win32,60.11060351,41,learning,0,resources/alien2_norm.png,0.568101573,resources/alien1_norm.png,0.743730679,TRUE,TRUE,3,0.37635736,red,m,0.3561,alien1,TRUE,3,0.797235371,29,0,0.743730679,m,0.5782,0,49,49,49,1,0.743730679,0.568101573,0.63551621,0.647257539,TRUE,,,,,,,,,,,,,,,,,,,,,,,,,,,,,,,,,
GOSH_A6,2023-11-10_09h54.46.496,two_step_task_legacy,2022.2.4,Win32,60.11060351,41,learning,0,resources/alien1_norm.png,0.742405846,resources/alien2_norm.png,0.572548826,TRUE,TRUE,3,0.077643365,red,m,0.3367,alien1,TRUE,3,0.808626779,29,0,0.742405846,x,0.713,0,50,50,50,1,0.742405846,0.572548826,0.591204146,0.709977629,FALSE,,,,,,,,,,,,,,,,,,,,,,,,,,,,,,,,,
GOSH_A6,2023-11-10_09h54.46.496,two_step_task_legacy,2022.2.4,Win32,60.11060351,41,learning,1,resources/alien1_norm.png,0.731656858,resources/alien2_norm.png,0.573059605,TRUE,TRUE,3,0.76955117,red,x,1.0776,alien2,TRUE,3,0.901661983,29,0,0.573059605,m,0.8627,0,51,51,51,1,0.731656858,0.573059605,0.575730319,0.744945783,FALSE,,,,,,,,,,,,,,,,,,,,,,,,,,,,,,,,,
GOSH_A6,2023-11-10_09h54.46.496,two_step_task_legacy,2022.2.4,Win32,60.11060351,41,learning,0,resources/alien4_norm.png,0.725062463,resources/alien3_norm.png,0.559049285,TRUE,TRUE,2,0.577690087,purple,x,0.8789,alien4,TRUE,3,0.96583146,29,0,0.725062463,x,1.144,0,52,52,52,1,0.722202375,0.60094317,0.559049285,0.725062463,TRUE,,,,,,,,,,,,,,,,,,,,,,,,,,,,,,,,,
GOSH_A6,2023-11-10_09h54.46.496,two_step_task_legacy,2022.2.4,Win32,60.11060351,41,learning,1,resources/alien2_norm.png,0.616272459,resources/alien1_norm.png,0.747378689,TRUE,TRUE,3,0.906619853,red,x,0.4393,alien2,TRUE,2,0.475136328,30,1,0.616272459,x,1.41,0,53,53,53,1,0.747378689,0.616272459,0.57552337,0.745893196,TRUE,,,,,,,,,,,,,,,,,,,,,,,,,,,,,,,,,
GOSH_A6,2023-11-10_09h54.46.496,two_step_task_legacy,2022.2.4,Win32,60.11060351,41,learning,0,resources/alien1_norm.png,0.685531181,resources/alien2_norm.png,0.603674478,TRUE,TRUE,3,0.312124475,red,m,0.3894,alien2,TRUE,3,0.824074971,30,0,0.603674478,m,0.5877,0,54,54,54,1,0.685531181,0.603674478,0.596085384,0.740868649,FALSE,,,,,,,,,,,,,,,,,,,,,,,,,,,,,,,,,
GOSH_A6,2023-11-10_09h54.46.496,two_step_task_legacy,2022.2.4,Win32,60.11060351,41,learning,0,resources/alien4_norm.png,0.724326154,resources/alien3_norm.png,0.577550956,TRUE,TRUE,2,0.389593362,purple,x,0.6601,alien4,TRUE,2,0.64255477,31,1,0.724326154,x,1.0004,0,55,55,55,1,0.688074556,0.625850557,0.577550956,0.724326154,TRUE,,,,,,,,,,,,,,,,,,,,,,,,,,,,,,,,,
GOSH_A6,2023-11-10_09h54.46.496,two_step_task_legacy,2022.2.4,Win32,60.11060351,41,learning,0,resources/alien3_norm.png,0.584079294,resources/alien4_norm.png,0.728943976,TRUE,TRUE,2,0.38807662,purple,x,0.3831,alien4,TRUE,2,0.508069428,32,1,0.728943976,m,0.6845,0,56,56,56,1,0.663246753,0.617190689,0.584079294,0.728943976,FALSE,,,,,,,,,,,,,,,,,,,,,,,,,,,,,,,,,
GOSH_A6,2023-11-10_09h54.46.496,two_step_task_legacy,2022.2.4,Win32,60.11060351,41,learning,0,resources/alien3_norm.png,0.578067357,resources/alien4_norm.png,0.749481486,TRUE,TRUE,2,0.305937133,purple,x,0.2869,alien4,TRUE,2,0.73259538,33,1,0.749481486,m,0.4999,0,57,57,57,1,0.648444122,0.611121997,0.578067357,0.749481486,FALSE,,,,,,,,,,,,,,,,,,,,,,,,,,,,,,,,,
GOSH_A6,2023-11-10_09h54.46.496,two_step_task_legacy,2022.2.4,Win32,60.11060351,41,learning,0,resources/alien3_norm.png,0.598288486,resources/alien4_norm.png,0.721493407,TRUE,TRUE,2,0.429847909,purple,x,0.3451,alien4,TRUE,2,0.672900137,34,1,0.721493407,m,0.4458,0,58,58,58,1,0.676622776,0.625101394,0.598288486,0.721493407,FALSE,,,,,,,,,,,,,,,,,,,,,,,,,,,,,,,,,
GOSH_A6,2023-11-10_09h54.46.496,two_step_task_legacy,2022.2.4,Win32,60.11060351,41,learning,1,resources/alien2_norm.png,0.665800562,resources/alien1_norm.png,0.689847488,TRUE,TRUE,3,0.907432576,red,x,0.3166,alien1,TRUE,3,0.877610164,34,0,0.689847488,m,1.4578,0,59,59,59,1,0.689847488,0.665800562,0.557855925,0.714889988,TRUE,,,,,,,,,,,,,,,,,,,,,,,,,,,,,,,,,
GOSH_A6,2023-11-10_09h54.46.496,two_step_task_legacy,2022.2.4,Win32,60.11060351,41,learning,0,resources/alien3_norm.png,0.531914095,resources/alien4_norm.png,0.6693347,TRUE,TRUE,2,0.20652297,purple,x,0.3227,alien4,TRUE,3,0.947963375,34,0,0.6693347,m,0.6942,0,60,60,60,1,0.717720941,0.648669251,0.531914095,0.6693347,FALSE,,,,,,,,,,,,,,,,,,,,,,,,,,,,,,,,,
GOSH_A6,2023-11-10_09h54.46.496,two_step_task_legacy,2022.2.4,Win32,60.11060351,41,learning,1,resources/alien2_norm.png,0.646860561,resources/alien1_norm.png,0.661610946,TRUE,TRUE,3,0.826797853,red,x,0.3359,alien2,TRUE,2,0.081916357,35,1,0.646860561,x,0.9514,0,61,61,61,1,0.661610946,0.646860561,0.510276235,0.679727111,TRUE,,,,,,,,,,,,,,,,,,,,,,,,,,,,,,,,,
GOSH_A6,2023-11-10_09h54.46.496,two_step_task_legacy,2022.2.4,Win32,60.11060351,41,learning,1,resources/alien2_norm.png,0.627004415,resources/alien1_norm.png,0.656145255,TRUE,TRUE,3,0.846535817,red,x,0.7306,alien2,TRUE,3,0.820363297,35,0,0.627004415,x,1.6066,0,62,62,62,1,0.656145255,0.627004415,0.49869813,0.695042862,TRUE,,,,,,,,,,,,,,,,,,,,,,,,,,,,,,,,,
GOSH_A6,2023-11-10_09h54.46.496,two_step_task_legacy,2022.2.4,Win32,60.11060351,41,learning,0,resources/alien3_norm.png,0.54503642,resources/alien4_norm.png,0.72246338,TRUE,TRUE,2,0.549394908,purple,x,0.3781,alien4,TRUE,3,0.922531369,35,0,0.72246338,m,0.7931,0,63,63,63,1,0.630791729,0.629113125,0.54503642,0.72246338,FALSE,,,,,,,,,,,,,,,,,,,,,,,,,,,,,,,,,
GOSH_A6,2023-11-10_09h54.46.496,two_step_task_legacy,2022.2.4,Win32,60.11060351,41,learning,0,resources/alien4_norm.png,0.700523395,resources/alien3_norm.png,0.543735631,TRUE,TRUE,2,0.093050846,purple,x,0.4209,alien3,TRUE,3,0.790133738,35,0,0.543735631,m,0.8627,0,64,64,64,1,0.612540457,0.65370092,0.543735631,0.700523395,TRUE,,,,,,,,,,,,,,,,,,,,,,,,,,,,,,,,,
GOSH_A6,2023-11-10_09h54.46.496,two_step_task_legacy,2022.2.4,Win32,60.11060351,41,learning,1,resources/alien2_norm.png,0.683022062,resources/alien1_norm.png,0.59867619,TRUE,TRUE,3,0.939890167,red,x,0.4175,alien2,TRUE,2,0.37977509,36,1,0.683022062,x,1.5646,0,65,65,65,1,0.59867619,0.683022062,0.518545963,0.697685388,TRUE,,,,,,,,,,,,,,,,,,,,,,,,,,,,,,,,,
GOSH_A6,2023-11-10_09h54.46.496,two_step_task_legacy,2022.2.4,Win32,60.11060351,41,learning,1,resources/alien4_norm.png,0.693832384,resources/alien3_norm.png,0.508248899,TRUE,TRUE,2,0.895658905,purple,m,0.3501,alien4,TRUE,2,0.692233587,37,1,0.693832384,x,1.3604,0,66,66,66,1,0.625425207,0.674654184,0.508248899,0.693832384,TRUE,,,,,,,,,,,,,,,,,,,,,,,,,,,,,,,,,
GOSH_A6,2023-11-10_09h54.46.496,two_step_task_legacy,2022.2.4,Win32,60.11060351,41,learning,1,resources/alien3_norm.png,0.525062901,resources/alien4_norm.png,0.675420829,TRUE,TRUE,2,0.982063375,purple,m,0.3591,alien4,TRUE,2,0.087716861,38,1,0.675420829,m,1.2558,0,67,67,67,1,0.655675286,0.701507056,0.525062901,0.675420829,FALSE,,,,,,,,,,,,,,,,,,,,,,,,,,,,,,,,,
GOSH_A6,2023-11-10_09h54.46.496,two_step_task_legacy,2022.2.4,Win32,60.11060351,41,learning,0,resources/alien2_norm.png,0.67166996,resources/alien1_norm.png,0.637758686,TRUE,TRUE,3,0.515279226,red,m,0.3296,alien2,TRUE,2,0.357917166,39,1,0.67166996,x,0.7702,0,68,68,68,1,0.637758686,0.67166996,0.551839449,0.642448274,TRUE,,,,,,,,,,,,,,,,,,,,,,,,,,,,,,,,,
GOSH_A6,2023-11-10_09h54.46.496,two_step_task_legacy,2022.2.4,Win32,60.11060351,41,learning,0,resources/alien2_norm.png,0.647407293,resources/alien1_norm.png,0.671744386,TRUE,TRUE,3,0.063546512,red,m,0.2796,alien2,TRUE,2,0.341816319,40,1,0.647407293,x,0.4985,0,69,69,69,1,0.671744386,0.647407293,0.548248453,0.640383184,TRUE,,,,,,,,,,,,,,,,,,,,,,,,,,,,,,,,,
GOSH_A6,2023-11-10_09h54.46.496,two_step_task_legacy,2022.2.4,Win32,60.11060351,41,learning,0,resources/alien1_norm.png,0.717480766,resources/alien2_norm.png,0.636657553,TRUE,TRUE,3,0.383698839,red,m,0.2717,alien2,TRUE,2,0.135227214,41,1,0.636657553,m,0.7042,0,70,70,70,1,0.717480766,0.636657553,0.55259829,0.599602124,FALSE,,,,,,,,,,,,,,,,,,,,,,,,,,,,,,,,,
GOSH_A6,2023-11-10_09h54.46.496,two_step_task_legacy,2022.2.4,Win32,60.11060351,41,learning,1,resources/alien4_norm.png,0.607966578,resources/alien3_norm.png,0.582043005,TRUE,TRUE,2,0.995355456,purple,m,0.3341,alien4,TRUE,3,0.977572459,41,0,0.607966578,x,0.5791,0,71,71,71,1,0.700684726,0.636086446,0.582043005,0.607966578,TRUE,,,,,,,,,,,,,,,,,,,,,,,,,,,,,,,,,
GOSH_A6,2023-11-10_09h54.46.496,two_step_task_legacy,2022.2.4,Win32,60.11060351,41,learning,0,resources/alien2_norm.png,0.63923175,resources/alien1_norm.png,0.668092692,TRUE,TRUE,3,0.593690106,red,m,0.3548,alien2,TRUE,2,0.133736409,42,1,0.63923175,x,0.6744,0,72,72,72,1,0.668092692,0.63923175,0.596964849,0.645982736,TRUE,,,,,,,,,,,,,,,,,,,,,,,,,,,,,,,,,
GOSH_A6,2023-11-10_09h54.46.496,two_step_task_legacy,2022.2.4,Win32,60.11060351,41,learning,0,resources/alien2_norm.png,0.660846117,resources/alien1_norm.png,0.686325338,TRUE,TRUE,3,0.271444671,red,m,0.3175,alien2,TRUE,2,0.471130148,43,1,0.660846117,x,0.6268,0,73,73,73,1,0.686325338,0.660846117,0.599337874,0.611402388,TRUE,,,,,,,,,,,,,,,,,,,,,,,,,,,,,,,,,
GOSH_A6,2023-11-10_09h54.46.496,two_step_task_legacy,2022.2.4,Win32,60.11060351,41,learning,0,resources/alien1_norm.png,0.681522799,resources/alien2_norm.png,0.63603781,TRUE,TRUE,3,0.197295315,red,m,0.2672,alien2,TRUE,2,0.050633344,44,1,0.63603781,m,0.6893,0,74,74,74,1,0.681522799,0.63603781,0.584931769,0.578757794,FALSE,,,,,,,,,,,,,,,,,,,,,,,,,,,,,,,,,
GOSH_A6,2023-11-10_09h54.46.496,two_step_task_legacy,2022.2.4,Win32,60.11060351,41,learning,0,resources/alien2_norm.png,0.668013482,resources/alien1_norm.png,0.694546121,TRUE,TRUE,3,0.234898568,red,m,0.2517,alien2,TRUE,3,0.783571359,44,0,0.668013482,x,0.5785,0,75,75,75,1,0.694546121,0.668013482,0.58633745,0.583999801,TRUE,,,,,,,,,,,,,,,,,,,,,,,,,,,,,,,,,
GOSH_A6,2023-11-10_09h54.46.496,two_step_task_legacy,2022.2.4,Win32,60.11060351,41,learning,0,resources/alien2_norm.png,0.670972145,resources/alien1_norm.png,0.688428203,TRUE,TRUE,3,0.116924156,red,m,0.3001,alien2,TRUE,2,0.171144008,45,1,0.670972145,x,0.4395,0,76,76,76,1,0.688428203,0.670972145,0.618572647,0.58256071,TRUE,,,,,,,,,,,,,,,,,,,,,,,,,,,,,,,,,
GOSH_A6,2023-11-10_09h54.46.496,two_step_task_legacy,2022.2.4,Win32,60.11060351,41,learning,0,resources/alien2_norm.png,0.69222779,resources/alien1_norm.png,0.684514858,TRUE,TRUE,3,0.033846527,red,m,0.3709,alien2,TRUE,2,0.382905752,46,1,0.69222779,x,0.4174,0,77,77,77,1,0.684514858,0.69222779,0.611596499,0.567633367,TRUE,,,,,,,,,,,,,,,,,,,,,,,,,,,,,,,,,
GOSH_A6,2023-11-10_09h54.46.496,two_step_task_legacy,2022.2.4,Win32,60.11060351,41,learning,0,resources/alien2_norm.png,0.744148077,resources/alien1_norm.png,0.648201548,TRUE,TRUE,3,0.677406762,red,m,0.2618,alien2,TRUE,2,0.703903017,47,1,0.744148077,x,0.4122,0,78,78,78,1,0.648201548,0.744148077,0.616008699,0.583935421,TRUE,,,,,,,,,,,,,,,,,,,,,,,,,,,,,,,,,
GOSH_A6,2023-11-10_09h54.46.496,two_step_task_legacy,2022.2.4,Win32,60.11060351,41,learning,0,resources/alien1_norm.png,0.635827969,resources/alien2_norm.png,0.721433206,TRUE,TRUE,3,0.026871815,red,m,0.2709,alien2,TRUE,2,0.642903815,48,1,0.721433206,m,0.5914,0,79,79,79,1,0.635827969,0.721433206,0.64486417,0.552496533,FALSE,,,,,,,,,,,,,,,,,,,,,,,,,,,,,,,,,
GOSH_A6,2023-11-10_09h54.46.496,two_step_task_legacy,2022.2.4,Win32,60.11060351,41,learning,0,resources/alien1_norm.png,0.673456106,resources/alien2_norm.png,0.676189685,TRUE,TRUE,3,0.621177344,red,m,0.2888,alien2,TRUE,2,0.052245166,49,1,0.676189685,m,0.5041,0,80,80,80,1,0.673456106,0.676189685,0.647788484,0.521841309,FALSE,,,,,,,,,,,,,,,,,,,,,,,,,,,,,,,,,
GOSH_A6,2023-11-10_09h54.46.496,two_step_task_legacy,2022.2.4,Win32,60.11060351,41,learning,0,resources/alien1_norm.png,0.689133456,resources/alien2_norm.png,0.665185929,TRUE,TRUE,3,0.462106573,red,m,0.2892,alien2,TRUE,2,0.113080908,50,1,0.665185929,m,0.4746,0,81,81,81,1,0.689133456,0.665185929,0.685354512,0.527047195,FALSE,,,,,,,,,,,,,,,,,,,,,,,,,,,,,,,,,
GOSH_A6,2023-11-10_09h54.46.496,two_step_task_legacy,2022.2.4,Win32,60.11060351,41,learning,0,resources/alien1_norm.png,0.706821286,resources/alien2_norm.png,0.698886555,TRUE,TRUE,3,0.324816373,red,m,0.3114,alien2,TRUE,2,0.480456615,51,1,0.698886555,m,0.4728,0,82,82,82,1,0.706821286,0.698886555,0.729212051,0.536142419,FALSE,,,,,,,,,,,,,,,,,,,,,,,,,,,,,,,,,
GOSH_A6,2023-11-10_09h54.46.496,two_step_task_legacy,2022.2.4,Win32,60.11060351,41,learning,1,resources/alien3_norm.png,0.743470703,resources/alien4_norm.png,0.523815865,TRUE,TRUE,2,0.886797761,purple,m,0.3565,alien4,TRUE,3,0.712295435,51,0,0.523815865,m,0.9049,0,83,83,83,1,0.695989226,0.696312699,0.743470703,0.523815865,FALSE,,,,,,,,,,,,,,,,,,,,,,,,,,,,,,,,,
GOSH_A6,2023-11-10_09h54.46.496,two_step_task_legacy,2022.2.4,Win32,60.11060351,41,learning,0,resources/alien2_norm.png,0.649733708,resources/alien1_norm.png,0.734701173,TRUE,TRUE,3,0.168952524,red,m,0.2998,alien2,TRUE,3,0.816446578,51,0,0.649733708,x,0.6284,0,84,84,84,1,0.734701173,0.649733708,0.740120038,0.562465929,TRUE,,,,,,,,,,,,,,,,,,,,,,,,,,,,,,,,,
GOSH_A6,2023-11-10_09h54.46.496,two_step_task_legacy,2022.2.4,Win32,60.11060351,41,learning,0,resources/alien1_norm.png,0.685639988,resources/alien2_norm.png,0.614575836,TRUE,TRUE,3,0.674305241,red,m,1.5948,alien2,TRUE,3,0.903282834,51,0,0.614575836,m,0.507,0,85,85,85,1,0.685639988,0.614575836,0.747459119,0.560395165,FALSE,,,,,,,,,,,,,,,,,,,,,,,,,,,,,,,,,
GOSH_A6,2023-11-10_09h54.46.496,two_step_task_legacy,2022.2.4,Win32,60.11060351,41,learning,1,resources/alien4_norm.png,0.553950792,resources/alien3_norm.png,0.739747496,TRUE,TRUE,2,0.828624204,purple,m,0.2855,alien3,TRUE,3,0.964841339,51,0,0.739747496,m,1.1203,0,86,86,86,1,0.747269927,0.635889034,0.739747496,0.553950792,TRUE,,,,,,,,,,,,,,,,,,,,,,,,,,,,,,,,,
GOSH_A6,2023-11-10_09h54.46.496,two_step_task_legacy,2022.2.4,Win32,60.11060351,41,learning,1,resources/alien2_norm.png,0.615434995,resources/alien1_norm.png,0.723611405,TRUE,TRUE,3,0.794500221,red,x,0.4165,alien1,TRUE,2,0.252779542,52,1,0.723611405,m,1.0869,0,87,87,87,1,0.723611405,0.615434995,0.720528232,0.540800492,TRUE,,,,,,,,,,,,,,,,,,,,,,,,,,,,,,,,,
GOSH_A6,2023-11-10_09h54.46.496,two_step_task_legacy,2022.2.4,Win32,60.11060351,41,learning,0,resources/alien2_norm.png,0.617571559,resources/alien1_norm.png,0.733565483,TRUE,TRUE,3,0.356541731,red,m,0.5043,alien1,TRUE,2,0.493248868,53,1,0.733565483,m,0.4508,0,88,88,88,1,0.733565483,0.617571559,0.720139582,0.552648518,TRUE,,,,,,,,,,,,,,,,,,,,,,,,,,,,,,,,,
GOSH_A6,2023-11-10_09h54.46.496,two_step_task_legacy,2022.2.4,Win32,60.11060351,41,learning,0,resources/alien1_norm.png,0.716799535,resources/alien2_norm.png,0.62032434,TRUE,TRUE,3,0.198655736,red,m,0.2882,alien1,TRUE,2,0.539029452,54,1,0.716799535,x,0.6469,0,89,89,89,1,0.716799535,0.62032434,0.710865526,0.525233651,FALSE,,,,,,,,,,,,,,,,,,,,,,,,,,,,,,,,,
GOSH_A6,2023-11-10_09h54.46.496,two_step_task_legacy,2022.2.4,Win32,60.11060351,41,learning,0,resources/alien2_norm.png,0.592138281,resources/alien1_norm.png,0.697708351,TRUE,TRUE,3,0.104287938,red,m,0.334,alien1,TRUE,3,0.836084398,54,0,0.697708351,m,0.4737,0,90,90,90,1,0.697708351,0.592138281,0.707326247,0.477030298,TRUE,,,,,,,,,,,,,,,,,,,,,,,,,,,,,,,,,
GOSH_A6,2023-11-10_09h54.46.496,two_step_task_legacy,2022.2.4,Win32,60.11060351,41,learning,0,resources/alien2_norm.png,0.578162809,resources/alien1_norm.png,0.656811595,TRUE,TRUE,3,0.496477688,red,m,0.3203,alien1,TRUE,2,0.360335703,55,1,0.656811595,m,0.395,0,91,91,91,1,0.656811595,0.578162809,0.693235307,0.485490214,TRUE,,,,,,,,,,,,,,,,,,,,,,,,,,,,,,,,,
GOSH_A6,2023-11-10_09h54.46.496,two_step_task_legacy,2022.2.4,Win32,60.11060351,41,learning,1,resources/alien4_norm.png,0.435668915,resources/alien3_norm.png,0.702752807,TRUE,TRUE,2,0.922650076,purple,m,0.266,alien4,TRUE,2,0.02929708,56,1,0.435668915,x,1.0369,0,92,92,92,1,0.672837186,0.565150917,0.702752807,0.435668915,TRUE,,,,,,,,,,,,,,,,,,,,,,,,,,,,,,,,,
GOSH_A6,2023-11-10_09h54.46.496,two_step_task_legacy,2022.2.4,Win32,60.11060351,41,learning,0,resources/alien1_norm.png,0.676148976,resources/alien2_norm.png,0.529168175,TRUE,TRUE,3,0.628083503,red,m,0.3397,alien1,TRUE,2,0.030930952,57,1,0.676148976,x,0.7016,0,93,93,93,1,0.676148976,0.529168175,0.651971234,0.460123955,FALSE,,,,,,,,,,,,,,,,,,,,,,,,,,,,,,,,,
GOSH_A6,2023-11-10_09h54.46.496,two_step_task_legacy,2022.2.4,Win32,60.11060351,41,learning,0,resources/alien2_norm.png,0.550348922,resources/alien1_norm.png,0.635695198,TRUE,TRUE,3,0.410230256,red,m,0.2834,alien1,TRUE,2,0.306439653,58,1,0.635695198,m,0.4464,0,94,94,94,1,0.635695198,0.550348922,0.666368314,0.462021783,TRUE,,,,,,,,,,,,,,,,,,,,,,,,,,,,,,,,,
GOSH_A6,2023-11-10_09h54.46.496,two_step_task_legacy,2022.2.4,Win32,60.11060351,41,learning,1,resources/alien3_norm.png,0.675864002,resources/alien4_norm.png,0.464566239,TRUE,TRUE,2,0.938938003,purple,m,0.5043,alien4,TRUE,2,0.077125535,59,1,0.464566239,m,0.7691,0,95,95,95,1,0.64731031,0.540740978,0.675864002,0.464566239,FALSE,,,,,,,,,,,,,,,,,,,,,,,,,,,,,,,,,
GOSH_A6,2023-11-10_09h54.46.496,two_step_task_legacy,2022.2.4,Win32,60.11060351,41,learning,0,resources/alien1_norm.png,0.616107931,resources/alien2_norm.png,0.470510182,TRUE,TRUE,3,0.028023628,red,m,0.3427,alien1,TRUE,2,0.117953901,60,1,0.616107931,x,0.5955,0,96,96,96,1,0.616107931,0.470510182,0.681668623,0.457390436,FALSE,,,,,,,,,,,,,,,,,,,,,,,,,,,,,,,,,
GOSH_A6,2023-11-10_09h54.46.496,two_step_task_legacy,2022.2.4,Win32,60.11060351,41,learning,0,resources/alien2_norm.png,0.470491496,resources/alien1_norm.png,0.649745482,TRUE,TRUE,3,0.320775544,red,m,0.2704,alien1,TRUE,2,0.445454507,61,1,0.649745482,m,0.6797,0,97,97,97,1,0.649745482,0.470491496,0.680331253,0.515938065,TRUE,,,,,,,,,,,,,,,,,,,,,,,,,,,,,,,,,
GOSH_A6,2023-11-10_09h54.46.496,two_step_task_legacy,2022.2.4,Win32,60.11060351,41,learning,0,resources/alien1_norm.png,0.66691481,resources/alien2_norm.png,0.458699425,TRUE,TRUE,3,0.316821747,red,m,0.3917,alien1,TRUE,2,0.098056105,62,1,0.66691481,x,0.4703,0,98,98,98,1,0.66691481,0.458699425,0.673122691,0.481141694,FALSE,,,,,,,,,,,,,,,,,,,,,,,,,,,,,,,,,
GOSH_A6,2023-11-10_09h54.46.496,two_step_task_legacy,2022.2.4,Win32,60.11060351,41,learning,1,resources/alien3_norm.png,0.670114402,resources/alien4_norm.png,0.452733412,TRUE,TRUE,2,0.908148125,purple,m,0.3331,alien4,TRUE,3,0.578820514,62,0,0.452733412,m,0.7784,0,99,99,99,1,0.670163,0.440355987,0.670114402,0.452733412,FALSE,,,,,,,,,,,,,,,,,,,,,,,,,,,,,,,,,
GOSH_A6,2023-11-10_09h54.46.496,two_step_task_legacy,2022.2.4,Win32,60.11060351,41,learning,0,resources/alien1_norm.png,0.662758721,resources/alien2_norm.png,0.410336414,TRUE,TRUE,3,0.3153676,red,m,0.3677,alien1,TRUE,2,0.623516721,63,1,0.662758721,x,0.5259,0,100,100,100,1,0.662758721,0.410336414,0.642860081,0.461700993,FALSE,,,,,,,,,,,,,,,,,,,,,,,,,,,,,,,,,
GOSH_A6,2023-11-10_09h54.46.496,two_step_task_legacy,2022.2.4,Win32,60.11060351,41,learning,0,resources/alien2_norm.png,0.424058962,resources/alien1_norm.png,0.643313989,TRUE,TRUE,3,0.294559421,red,m,0.3249,alien1,TRUE,2,0.219051591,64,1,0.643313989,m,0.4825,0,101,101,101,1,0.643313989,0.424058962,0.646010365,0.454211483,TRUE,,,,,,,,,,,,,,,,,,,,,,,,,,,,,,,,,
GOSH_A6,2023-11-10_09h54.46.496,two_step_task_legacy,2022.2.4,Win32,60.11060351,41,learning,0,resources/alien2_norm.png,0.389917938,resources/alien1_norm.png,0.631476746,TRUE,TRUE,3,0.527752275,red,m,0.3208,alien1,TRUE,3,0.897407097,64,0,0.631476746,m,0.4002,0,102,102,102,1,0.631476746,0.389917938,0.686955458,0.403618261,TRUE,,,,,,,,,,,,,,,,,,,,,,,,,,,,,,,,,
GOSH_A6,2023-11-10_09h54.46.496,two_step_task_legacy,2022.2.4,Win32,60.11060351,41,learning,1,resources/alien3_norm.png,0.689619337,resources/alien4_norm.png,0.408997292,TRUE,TRUE,2,0.842379535,purple,m,0.3279,alien4,TRUE,3,0.490531005,64,0,0.408997292,m,0.9771,0,103,103,103,1,0.607448023,0.403863017,0.689619337,0.408997292,FALSE,,,,,,,,,,,,,,,,,,,,,,,,,,,,,,,,,
GOSH_A6,2023-11-10_09h54.46.496,two_step_task_legacy,2022.2.4,Win32,60.11060351,41,learning,0,resources/alien1_norm.png,0.619684973,resources/alien2_norm.png,0.32950117,TRUE,TRUE,3,0.341633199,red,m,0.248,alien1,TRUE,3,0.650229996,64,0,0.619684973,x,0.466,0,104,104,104,1,0.619684973,0.32950117,0.705183971,0.360989718,FALSE,,,,,,,,,,,,,,,,,,,,,,,,,,,,,,,,,
GOSH_A6,2023-11-10_09h54.46.496,two_step_task_legacy,2022.2.4,Win32,60.11060351,41,learning,0,resources/alien3_norm.png,0.681410354,resources/alien4_norm.png,0.380752686,TRUE,TRUE,2,0.057402611,purple,x,0.6374,alien3,TRUE,3,0.696970714,64,0,0.681410354,x,0.5475,0,105,105,105,1,0.626375391,0.324837411,0.681410354,0.380752686,FALSE,,,,,,,,,,,,,,,,,,,,,,,,,,,,,,,,,
GOSH_A6,2023-11-10_09h54.46.496,two_step_task_legacy,2022.2.4,Win32,60.11060351,41,learning,0,resources/alien1_norm.png,0.615880608,resources/alien2_norm.png,0.30981068,TRUE,TRUE,3,0.236430109,red,m,0.4239,alien2,TRUE,3,0.721452619,64,0,0.30981068,m,0.4894,0,106,106,106,1,0.615880608,0.30981068,0.698260812,0.408132147,FALSE,,,,,,,,,,,,,,,,,,,,,,,,,,,,,,,,,
GOSH_A6,2023-11-10_09h54.46.496,two_step_task_legacy,2022.2.4,Win32,60.11060351,41,learning,0,resources/alien2_norm.png,0.292426972,resources/alien1_norm.png,0.62523509,TRUE,TRUE,3,0.630617994,red,m,0.673,alien1,TRUE,3,0.802711824,64,0,0.62523509,m,0.927,0,107,107,107,1,0.62523509,0.292426972,0.676320094,0.382292006,TRUE,,,,,,,,,,,,,,,,,,,,,,,,,,,,,,,,,
GOSH_A6,2023-11-10_09h54.46.496,two_step_task_legacy,2022.2.4,Win32,60.11060351,41,learning,0,resources/alien4_norm.png,0.37300537,resources/alien3_norm.png,0.660357999,TRUE,TRUE,2,0.043794442,purple,x,0.3927,alien4,TRUE,2,0.197754974,65,1,0.37300537,x,0.5266,0,108,108,108,1,0.598569321,0.344907943,0.660357999,0.37300537,TRUE,,,,,,,,,,,,,,,,,,,,,,,,,,,,,,,,,
GOSH_A6,2023-11-10_09h54.46.496,two_step_task_legacy,2022.2.4,Win32,60.11060351,41,learning,0,resources/alien4_norm.png,0.37993784,resources/alien3_norm.png,0.613979315,TRUE,TRUE,2,0.562267388,purple,x,0.3616,alien4,TRUE,3,0.915873449,65,0,0.37993784,x,0.4175,0,109,109,109,1,0.570361358,0.331154462,0.613979315,0.37993784,TRUE,,,,,,,,,,,,,,,,,,,,,,,,,,,,,,,,,
GOSH_A6,2023-11-10_09h54.46.496,two_step_task_legacy,2022.2.4,Win32,60.11060351,41,learning,0,resources/alien4_norm.png,0.393058165,resources/alien3_norm.png,0.619699199,TRUE,TRUE,2,0.385535601,purple,x,0.279,alien4,TRUE,2,0.090903237,66,1,0.393058165,x,0.4301,0,110,110,110,1,0.58740035,0.337657948,0.619699199,0.393058165,TRUE,,,,,,,,,,,,,,,,,,,,,,,,,,,,,,,,,
GOSH_A6,2023-11-10_09h54.46.496,two_step_task_legacy,2022.2.4,Win32,60.11060351,41,learning,1,resources/alien2_norm.png,0.359047055,resources/alien1_norm.png,0.559911302,TRUE,TRUE,3,0.924757314,red,x,0.2887,alien2,TRUE,3,0.538496786,66,0,0.359047055,x,1.1707,0,111,111,111,1,0.559911302,0.359047055,0.619510259,0.416497809,TRUE,,,,,,,,,,,,,,,,,,,,,,,,,,,,,,,,,
GOSH_A6,2023-11-10_09h54.46.496,two_step_task_legacy,2022.2.4,Win32,60.11060351,41,learning,0,resources/alien4_norm.png,0.435958342,resources/alien3_norm.png,0.613611162,TRUE,TRUE,2,0.087744409,purple,x,0.2832,alien4,TRUE,3,0.676570558,66,0,0.435958342,x,0.5945,0,112,112,112,1,0.545494272,0.411191307,0.613611162,0.435958342,TRUE,,,,,,,,,,,,,,,,,,,,,,,,,,,,,,,,,
GOSH_A6,2023-11-10_09h54.46.496,two_step_task_legacy,2022.2.4,Win32,60.11060351,41,learning,1,resources/alien1_norm.png,0.579246776,resources/alien2_norm.png,0.440247332,TRUE,TRUE,3,0.751039205,red,x,0.2667,alien1,TRUE,3,0.963000728,66,0,0.579246776,x,1.1558,0,113,113,113,1,0.579246776,0.440247332,0.637218142,0.452738616,FALSE,,,,,,,,,,,,,,,,,,,,,,,,,,,,,,,,,
GOSH_A6,2023-11-10_09h54.46.496,two_step_task_legacy,2022.2.4,Win32,60.11060351,41,learning,1,resources/alien2_norm.png,0.425079018,resources/alien1_norm.png,0.583340322,TRUE,TRUE,3,0.849674336,red,x,0.2813,alien2,TRUE,3,0.485819379,66,0,0.425079018,x,1.7885,0,114,114,114,1,0.583340322,0.425079018,0.596355675,0.468325959,TRUE,,,,,,,,,,,,,,,,,,,,,,,,,,,,,,,,,
GOSH_A6,2023-11-10_09h54.46.496,two_step_task_legacy,2022.2.4,Win32,60.11060351,41,learning,1,resources/alien1_norm.png,0.604945689,resources/alien2_norm.png,0.434492892,TRUE,TRUE,3,0.971759005,red,x,0.2804,none,FALSE,NA,,66,0,0.425079018,,,0,115,115,115,1,0.604945689,0.434492892,0.576655415,0.460870818,FALSE,,,,,,,,,,,,,,,,,,,,,,,,,,,,,,,,,
GOSH_A6,2023-11-10_09h54.46.496,two_step_task_legacy,2022.2.4,Win32,60.11060351,41,learning,0,resources/alien2_norm.png,0.411991774,resources/alien1_norm.png,0.586469122,TRUE,TRUE,3,0.091940233,red,m,0.4842,alien1,TRUE,2,0.387725299,67,1,0.586469122,m,0.6718,0,116,116,116,1,0.586469122,0.411991774,0.614935872,0.448255298,TRUE,,,,,,,,,,,,,,,,,,,,,,,,,,,,,,,,,
GOSH_A6,2023-11-10_09h54.46.496,two_step_task_legacy,2022.2.4,Win32,60.11060351,41,learning,0,resources/alien1_norm.png,0.597680175,resources/alien2_norm.png,0.407781491,TRUE,TRUE,3,0.265669607,red,m,0.6778,alien1,TRUE,2,0.151587725,68,1,0.597680175,x,0.6709,0,117,117,117,1,0.597680175,0.407781491,0.642948289,0.438237026,FALSE,,,,,,,,,,,,,,,,,,,,,,,,,,,,,,,,,
GOSH_A6,2023-11-10_09h54.46.496,two_step_task_legacy,2022.2.4,Win32,60.11060351,41,learning,0,resources/alien2_norm.png,0.404204885,resources/alien1_norm.png,0.607140369,TRUE,TRUE,3,0.492116704,red,m,0.2873,alien1,TRUE,3,0.661125773,68,0,0.607140369,m,0.568,0,118,118,118,1,0.607140369,0.404204885,0.602822322,0.404509124,TRUE,,,,,,,,,,,,,,,,,,,,,,,,,,,,,,,,,
GOSH_A6,2023-11-10_09h54.46.496,two_step_task_legacy,2022.2.4,Win32,60.11060351,41,learning,0,resources/alien2_norm.png,0.380959241,resources/alien1_norm.png,0.645920283,TRUE,TRUE,3,0.473248682,red,m,0.2881,alien1,TRUE,2,0.349985306,69,1,0.645920283,m,0.4343,0,119,119,119,1,0.645920283,0.380959241,0.580273823,0.401051938,TRUE,,,,,,,,,,,,,,,,,,,,,,,,,,,,,,,,,
GOSH_A6,2023-11-10_09h54.46.496,two_step_task_legacy,2022.2.4,Win32,60.11060351,41,learning,0,resources/alien2_norm.png,0.392859086,resources/alien1_norm.png,0.658547117,TRUE,TRUE,3,0.596356001,red,m,0.2604,alien1,TRUE,3,0.872476354,69,0,0.658547117,m,0.4219,0,120,120,120,1,0.658547117,0.392859086,0.631562859,0.412259552,TRUE,,,,,,,,,,,,,,,,,,,,,,,,,,,,,,,,,
GOSH_A6,2023-11-10_09h54.46.496,two_step_task_legacy,2022.2.4,Win32,60.11060351,41,learning,0,resources/alien2_norm.png,0.360451327,resources/alien1_norm.png,0.650404676,TRUE,TRUE,3,0.43632092,red,m,0.2446,alien1,TRUE,2,0.489787317,70,1,0.650404676,m,0.3762,0,121,121,121,1,0.650404676,0.360451327,0.604082121,0.395928975,TRUE,,,,,,,,,,,,,,,,,,,,,,,,,,,,,,,,,
GOSH_A6,2023-11-10_09h54.46.496,two_step_task_legacy,2022.2.4,Win32,60.11060351,41,learning,0,resources/alien2_norm.png,0.355956285,resources/alien1_norm.png,0.673272533,TRUE,TRUE,3,0.287513299,red,m,0.26,alien1,TRUE,2,0.651794144,71,1,0.673272533,m,0.3794,0,122,122,122,1,0.673272533,0.355956285,0.628665817,0.386308261,TRUE,,,,,,,,,,,,,,,,,,,,,,,,,,,,,,,,,
GOSH_A6,2023-11-10_09h54.46.496,two_step_task_legacy,2022.2.4,Win32,60.11060351,41,learning,0,resources/alien1_norm.png,0.670632873,resources/alien2_norm.png,0.327747525,TRUE,TRUE,3,0.085126874,red,m,0.269,alien1,TRUE,3,0.707732204,71,0,0.670632873,x,0.5512,0,123,123,123,1,0.670632873,0.327747525,0.610103866,0.357718182,FALSE,,,,,,,,,,,,,,,,,,,,,,,,,,,,,,,,,
GOSH_A6,2023-11-10_09h54.46.496,two_step_task_legacy,2022.2.4,Win32,60.11060351,41,learning,1,resources/alien3_norm.png,0.613229285,resources/alien4_norm.png,0.37097985,TRUE,TRUE,2,0.873654306,purple,m,0.2694,alien3,TRUE,2,0.262186904,72,1,0.613229285,x,0.9569,0,124,124,124,1,0.657862677,0.344154365,0.613229285,0.37097985,FALSE,,,,,,,,,,,,,,,,,,,,,,,,,,,,,,,,,
GOSH_A6,2023-11-10_09h54.46.496,two_step_task_legacy,2022.2.4,Win32,60.11060351,41,learning,0,resources/alien4_norm.png,0.381658026,resources/alien3_norm.png,0.610850875,TRUE,TRUE,2,0.45108556,purple,x,0.4184,alien3,TRUE,3,0.664098692,72,0,0.610850875,m,0.5731,0,125,125,125,1,0.621544128,0.309658221,0.610850875,0.381658026,TRUE,,,,,,,,,,,,,,,,,,,,,,,,,,,,,,,,,
GOSH_A6,2023-11-10_09h54.46.496,two_step_task_legacy,2022.2.4,Win32,60.11060351,41,learning,0,resources/alien1_norm.png,0.638765158,resources/alien2_norm.png,0.331079162,TRUE,TRUE,3,0.498866517,red,m,0.2608,alien1,TRUE,2,0.515036981,73,1,0.638765158,x,0.5425,0,126,126,126,1,0.638765158,0.331079162,0.609641124,0.398279361,FALSE,,,,,,,,,,,,,,,,,,,,,,,,,,,,,,,,,
GOSH_A6,2023-11-10_09h54.46.496,two_step_task_legacy,2022.2.4,Win32,60.11060351,41,learning,0,resources/alien1_norm.png,0.626231969,resources/alien2_norm.png,0.317571318,TRUE,TRUE,3,0.00111842,red,m,0.2997,alien1,TRUE,3,0.91424482,73,0,0.626231969,x,0.563,0,127,127,127,1,0.626231969,0.317571318,0.58487235,0.373544908,FALSE,,,,,,,,,,,,,,,,,,,,,,,,,,,,,,,,,
GOSH_A6,2023-11-10_09h54.46.496,two_step_task_legacy,2022.2.4,Win32,60.11060351,41,learning,1,resources/alien2_norm.png,0.327327384,resources/alien1_norm.png,0.678718937,TRUE,TRUE,3,0.846573446,red,x,1.0711,alien1,TRUE,3,0.937757155,73,0,0.678718937,m,1.0399,0,128,128,128,1,0.678718937,0.327327384,0.568265306,0.391101509,TRUE,,,,,,,,,,,,,,,,,,,,,,,,,,,,,,,,,
GOSH_A6,2023-11-10_09h54.46.496,two_step_task_legacy,2022.2.4,Win32,60.11060351,41,learning,0,resources/alien1_norm.png,0.684288487,resources/alien2_norm.png,0.320525721,TRUE,TRUE,3,0.054791111,red,m,0.3224,alien2,TRUE,3,0.533299263,73,0,0.320525721,m,0.633,0,129,129,129,1,0.684288487,0.320525721,0.597478578,0.421707366,FALSE,,,,,,,,,,,,,,,,,,,,,,,,,,,,,,,,,
GOSH_A6,2023-11-10_09h54.46.496,two_step_task_legacy,2022.2.4,Win32,60.11060351,41,learning,1,resources/alien2_norm.png,0.343294024,resources/alien1_norm.png,0.708061265,TRUE,TRUE,3,0.875386405,red,x,0.2865,alien2,TRUE,3,0.877454821,73,0,0.343294024,x,0.9846,0,130,130,130,1,0.708061265,0.343294024,0.601527307,0.43392991,TRUE,,,,,,,,,,,,,,,,,,,,,,,,,,,,,,,,,
GOSH_A6,2023-11-10_09h54.46.496,two_step_task_legacy,2022.2.4,Win32,60.11060351,41,learning,1,resources/alien1_norm.png,0.686290312,resources/alien2_norm.png,0.382507356,TRUE,TRUE,3,0.869928225,red,x,0.3279,alien1,TRUE,3,0.762185215,73,0,0.686290312,x,1.0892,0,131,131,131,1,0.686290312,0.382507356,0.64763363,0.426719665,FALSE,,,,,,,,,,,,,,,,,,,,,,,,,,,,,,,,,
GOSH_A6,2023-11-10_09h54.46.496,two_step_task_legacy,2022.2.4,Win32,60.11060351,41,learning,0,resources/alien4_norm.png,0.46105971,resources/alien3_norm.png,0.651574397,TRUE,TRUE,2,0.429254823,purple,x,0.7212,alien3,TRUE,2,0.136236018,74,1,0.651574397,m,1.692,0,132,132,132,1,0.699484736,0.351467325,0.651574397,0.46105971,TRUE,,,,,,,,,,,,,,,,,,,,,,,,,,,,,,,,,
GOSH_A6,2023-11-10_09h54.46.496,two_step_task_legacy,2022.2.4,Win32,60.11060351,41,learning,0,resources/alien3_norm.png,0.646278608,resources/alien4_norm.png,0.445730538,TRUE,TRUE,2,0.045582803,purple,x,0.3304,alien3,TRUE,3,0.705429985,74,0,0.646278608,x,0.5035,0,133,133,133,1,0.641468852,0.341104878,0.646278608,0.445730538,FALSE,,,,,,,,,,,,,,,,,,,,,,,,,,,,,,,,,
GOSH_A6,2023-11-10_09h54.46.496,two_step_task_legacy,2022.2.4,Win32,60.11060351,41,learning,0,resources/alien3_norm.png,0.567315406,resources/alien4_norm.png,0.415065107,TRUE,TRUE,2,0.060390078,purple,x,0.2885,alien3,TRUE,2,0.496640774,75,1,0.567315406,x,0.533,0,134,134,134,1,0.644630983,0.334501306,0.567315406,0.415065107,FALSE,,,,,,,,,,,,,,,,,,,,,,,,,,,,,,,,,
GOSH_A6,2023-11-10_09h54.46.496,two_step_task_legacy,2022.2.4,Win32,60.11060351,41,learning,0,resources/alien3_norm.png,0.546803619,resources/alien4_norm.png,0.435505403,TRUE,TRUE,2,0.59439658,purple,x,0.2669,alien3,TRUE,2,8.33157E-05,76,1,0.546803619,x,0.4588,0,135,135,135,1,0.62177449,0.306808941,0.546803619,0.435505403,FALSE,,,,,,,,,,,,,,,,,,,,,,,,,,,,,,,,,
GOSH_A6,2023-11-10_09h54.46.496,two_step_task_legacy,2022.2.4,Win32,60.11060351,41,learning,0,resources/alien3_norm.png,0.530728159,resources/alien4_norm.png,0.435824404,TRUE,TRUE,2,0.46195685,purple,x,0.2674,alien3,TRUE,2,0.373542448,77,1,0.530728159,x,0.3872,0,136,136,136,1,0.583999286,0.335239917,0.530728159,0.435824404,FALSE,,,,,,,,,,,,,,,,,,,,,,,,,,,,,,,,,
GOSH_A6,2023-11-10_09h54.46.496,two_step_task_legacy,2022.2.4,Win32,60.11060351,41,learning,0,resources/alien4_norm.png,0.410734121,resources/alien3_norm.png,0.526351702,TRUE,TRUE,2,0.346731477,purple,x,0.248,alien4,TRUE,3,0.493206677,77,0,0.410734121,x,0.4007,0,137,137,137,1,0.622896698,0.307734706,0.526351702,0.410734121,TRUE,,,,,,,,,,,,,,,,,,,,,,,,,,,,,,,,,
GOSH_A6,2023-11-10_09h54.46.496,two_step_task_legacy,2022.2.4,Win32,60.11060351,41,learning,1,resources/alien1_norm.png,0.652449873,resources/alien2_norm.png,0.293138513,TRUE,TRUE,3,0.937677841,red,x,0.6116,alien2,TRUE,3,0.67345442,77,0,0.293138513,m,0.9278,0,138,138,138,1,0.652449873,0.293138513,0.540851944,0.424768301,FALSE,,,,,,,,,,,,,,,,,,,,,,,,,,,,,,,,,
GOSH_A6,2023-11-10_09h54.46.496,two_step_task_legacy,2022.2.4,Win32,60.11060351,41,learning,0,resources/alien3_norm.png,0.526378494,resources/alien4_norm.png,0.405697073,TRUE,TRUE,2,0.469958561,purple,x,0.2937,alien3,TRUE,2,0.502028266,78,1,0.526378494,x,0.7391,0,139,139,139,1,0.641621388,0.272932121,0.526378494,0.405697073,FALSE,,,,,,,,,,,,,,,,,,,,,,,,,,,,,,,,,
GOSH_A6,2023-11-10_09h54.46.496,two_step_task_legacy,2022.2.4,Win32,60.11060351,41,learning,0,resources/alien3_norm.png,0.5484319,resources/alien4_norm.png,0.443309791,TRUE,TRUE,2,0.453378624,purple,x,0.3131,alien3,TRUE,2,0.508097227,79,1,0.5484319,x,0.4401,0,140,140,140,1,0.62488726,0.255851205,0.5484319,0.443309791,FALSE,,,,,,,,,,,,,,,,,,,,,,,,,,,,,,,,,
GOSH_A6,2023-11-10_09h54.46.496,two_step_task_legacy,2022.2.4,Win32,60.11060351,41,learning,1,resources/alien2_norm.png,0.257559917,resources/alien1_norm.png,0.662793601,TRUE,TRUE,3,0.916942014,red,x,0.3576,alien1,TRUE,2,0.61632597,80,1,0.662793601,m,0.9582,0,141,141,141,1,0.662793601,0.257559917,0.528872078,0.47882794,TRUE,,,,,,,,,,,,,,,,,,,,,,,,,,,,,,,,,
GOSH_A6,2023-11-10_09h54.46.496,two_step_task_legacy,2022.2.4,Win32,60.11060351,41,learning,0,resources/alien4_norm.png,0.463754704,resources/alien3_norm.png,0.534881349,TRUE,TRUE,2,0.22425834,purple,x,0.3279,alien3,TRUE,3,0.993189377,80,0,0.534881349,m,0.5058,0,142,142,142,1,0.673804421,0.263651818,0.534881349,0.463754704,TRUE,,,,,,,,,,,,,,,,,,,,,,,,,,,,,,,,,
GOSH_A6,2023-11-10_09h54.46.496,two_step_task_legacy,2022.2.4,Win32,60.11060351,41,learning,0,resources/alien4_norm.png,0.462479402,resources/alien3_norm.png,0.509649718,TRUE,TRUE,2,0.456201041,purple,x,0.2241,alien3,TRUE,2,0.394440047,81,1,0.509649718,m,0.4944,0,143,143,143,1,0.698580012,0.269979962,0.509649718,0.462479402,TRUE,,,,,,,,,,,,,,,,,,,,,,,,,,,,,,,,,
GOSH_A6,2023-11-10_09h54.46.496,two_step_task_legacy,2022.2.4,Win32,60.11060351,41,learning,1,resources/alien1_norm.png,0.736530576,resources/alien2_norm.png,0.296852887,TRUE,TRUE,3,0.702047901,red,x,0.2505,alien1,TRUE,2,0.306627464,82,1,0.736530576,x,0.8329,0,144,144,144,1,0.736530576,0.296852887,0.586453861,0.449444223,FALSE,,,,,,,,,,,,,,,,,,,,,,,,,,,,,,,,,
GOSH_A6,2023-11-10_09h54.46.496,two_step_task_legacy,2022.2.4,Win32,60.11060351,41,learning,1,resources/alien2_norm.png,0.285357955,resources/alien1_norm.png,0.729630293,TRUE,TRUE,3,0.863321677,red,x,0.2497,alien1,TRUE,2,0.691334741,83,1,0.729630293,m,0.9021,0,145,145,145,1,0.729630293,0.285357955,0.591891528,0.429541148,TRUE,,,,,,,,,,,,,,,,,,,,,,,,,,,,,,,,,
GOSH_A6,2023-11-10_09h54.46.496,two_step_task_legacy,2022.2.4,Win32,60.11060351,41,learning,1,resources/alien2_norm.png,0.263038351,resources/alien1_norm.png,0.733408604,TRUE,TRUE,3,0.958706927,red,x,0.4003,alien1,TRUE,2,0.243930159,84,1,0.733408604,m,0.5426,0,146,146,146,1,0.733408604,0.263038351,0.600996283,0.450195866,TRUE,,,,,,,,,,,,,,,,,,,,,,,,,,,,,,,,,
GOSH_A6,2023-11-10_09h54.46.496,two_step_task_legacy,2022.2.4,Win32,60.11060351,41,learning,0,resources/alien4_norm.png,0.445300194,resources/alien3_norm.png,0.595997484,TRUE,TRUE,2,0.22173416,purple,x,0.4169,alien3,TRUE,2,0.510429563,85,1,0.595997484,m,0.491,0,147,147,147,1,0.711810619,0.298461205,0.595997484,0.445300194,TRUE,,,,,,,,,,,,,,,,,,,,,,,,,,,,,,,,,
GOSH_A6,2023-11-10_09h54.46.496,two_step_task_legacy,2022.2.4,Win32,60.11060351,41,learning,0,resources/alien4_norm.png,0.429892682,resources/alien3_norm.png,0.600330442,TRUE,TRUE,2,0.377269132,purple,x,0.284,alien3,TRUE,3,0.6758366,85,0,0.600330442,m,0.4852,0,148,148,148,1,0.687823782,0.306984466,0.600330442,0.429892682,TRUE,,,,,,,,,,,,,,,,,,,,,,,,,,,,,,,,,
GOSH_A6,2023-11-10_09h54.46.496,two_step_task_legacy,2022.2.4,Win32,60.11060351,41,learning,1,resources/alien3_norm.png,0.630930916,resources/alien4_norm.png,0.426929955,TRUE,TRUE,2,0.982660796,purple,m,0.2144,alien3,TRUE,2,0.015224973,86,1,0.630930916,x,0.637,0,149,149,149,1,0.68869481,0.319584149,0.630930916,0.426929955,FALSE,,,,,,,,,,,,,,,,,,,,,,,,,,,,,,,,,
GOSH_A6,2023-11-10_09h54.46.496,two_step_task_legacy,2022.2.4,Win32,60.11060351,41,learning,0,resources/alien3_norm.png,0.6,resources/alien4_norm.png,0.4,TRUE,TRUE,2,0.165777781,purple,x,0.2863,alien3,TRUE,3,0.730866739,86,0,0.6,x,0.5348,0,150,150,150,1,0.7,0.3,0.6,0.4,FALSE,,,,,,,,,,,,,,,,,,,,,,,,,,,,,,,,,
GOSH_A6,2023-11-10_09h54.46.496,two_step_task_legacy,2022.2.4,Win32,60.11060351,41,learning,0,resources/alien1_norm.png,0.7,resources/alien2_norm.png,0.3,TRUE,TRUE,3,0.308283195,red,m,0.4039,alien1,TRUE,2,0.101365319,87,1,0.7,x,0.4588,0,151,151,151,1,0.7,0.3,0.6,0.4,FALSE,,,,,,,,,,,,,,,,,,,,,,,,,,,,,,,,,
GOSH_A6,2023-11-10_09h54.46.496,two_step_task_legacy,2022.2.4,Win32,60.11060351,41,learning,0,resources/alien1_norm.png,0.7,resources/alien2_norm.png,0.3,TRUE,TRUE,3,0.237545779,red,m,0.6051,alien1,TRUE,2,0.691690156,88,1,0.7,x,0.6511,0,152,152,152,1,0.7,0.3,0.6,0.4,FALSE,,,,,,,,,,,,,,,,,,,,,,,,,,,,,,,,,
GOSH_A6,2023-11-10_09h54.46.496,two_step_task_legacy,2022.2.4,Win32,60.11060351,41,learning,1,resources/alien4_norm.png,0.4,resources/alien3_norm.png,0.6,TRUE,TRUE,2,0.750446952,purple,m,0.2651,alien4,TRUE,2,0.341175812,89,1,0.4,x,1.1396,0,153,153,153,1,0.7,0.3,0.6,0.4,TRUE,,,,,,,,,,,,,,,,,,,,,,,,,,,,,,,,,
GOSH_A6,2023-11-10_09h54.46.496,two_step_task_legacy,2022.2.4,Win32,60.11060351,41,learning,0,resources/alien1_norm.png,0.7,resources/alien2_norm.png,0.3,TRUE,TRUE,3,0.434135672,red,m,0.3,alien1,TRUE,2,0.617690045,90,1,0.7,x,0.5071,0,154,154,154,1,0.7,0.3,0.6,0.4,FALSE,,,,,,,,,,,,,,,,,,,,,,,,,,,,,,,,,
GOSH_A6,2023-11-10_09h54.46.496,two_step_task_legacy,2022.2.4,Win32,60.11060351,41,learning,0,resources/alien2_norm.png,0.3,resources/alien1_norm.png,0.7,TRUE,TRUE,3,0.394325088,red,m,0.3167,alien1,TRUE,3,0.701716457,90,0,0.7,m,1.0373,0,155,155,155,1,0.7,0.3,0.6,0.4,TRUE,,,,,,,,,,,,,,,,,,,,,,,,,,,,,,,,,
GOSH_A6,2023-11-10_09h54.46.496,two_step_task_legacy,2022.2.4,Win32,60.11060351,41,learning,0,resources/alien2_norm.png,0.3,resources/alien1_norm.png,0.7,TRUE,TRUE,3,0.240931144,red,m,0.2949,alien1,TRUE,3,0.91289382,90,0,0.7,m,0.5711,0,156,156,156,1,0.7,0.3,0.6,0.4,TRUE,,,,,,,,,,,,,,,,,,,,,,,,,,,,,,,,,
GOSH_A6,2023-11-10_09h54.46.496,two_step_task_legacy,2022.2.4,Win32,60.11060351,41,learning,0,resources/alien2_norm.png,0.3,resources/alien1_norm.png,0.7,TRUE,TRUE,3,0.547377866,red,m,0.2897,alien2,TRUE,3,0.315395142,90,0,0.3,x,0.5836,0,157,157,157,1,0.7,0.3,0.6,0.4,TRUE,,,,,,,,,,,,,,,,,,,,,,,,,,,,,,,,,
GOSH_A6,2023-11-10_09h54.46.496,two_step_task_legacy,2022.2.4,Win32,60.11060351,41,learning,1,resources/alien1_norm.png,0.7,resources/alien2_norm.png,0.3,TRUE,TRUE,3,0.97560479,red,x,0.2889,alien1,TRUE,2,0.221574017,91,1,0.7,x,0.9399,0,158,158,158,1,0.7,0.3,0.6,0.4,FALSE,,,,,,,,,,,,,,,,,,,,,,,,,,,,,,,,,
GOSH_A6,2023-11-10_09h54.46.496,two_step_task_legacy,2022.2.4,Win32,60.11060351,41,learning,1,resources/alien1_norm.png,0.7,resources/alien2_norm.png,0.3,TRUE,TRUE,3,0.864120854,red,x,0.5541,alien1,TRUE,2,0.182612633,92,1,0.7,x,0.5547,0,159,159,159,1,0.7,0.3,0.6,0.4,FALSE,,,,,,,,,,,,,,,,,,,,,,,,,,,,,,,,,
GOSH_A6,2023-11-10_09h54.46.496,two_step_task_legacy,2022.2.4,Win32,60.11060351,41,learning,0,resources/alien2_norm.png,0.3,resources/alien1_norm.png,0.7,TRUE,TRUE,3,0.604340673,red,m,0.3173,alien1,TRUE,2,0.387275919,93,1,0.7,m,0.5114,0,160,160,160,1,0.7,0.3,0.6,0.4,TRUE,,,,,,,,,,,,,,,,,,,,,,,,,,,,,,,,,
GOSH_A6,2023-11-10_09h54.46.496,two_step_task_legacy,2022.2.4,Win32,60.11060351,41,learning,0,resources/alien1_norm.png,0.7,resources/alien2_norm.png,0.3,TRUE,TRUE,3,0.596723721,red,m,0.2815,alien1,TRUE,2,0.299610819,94,1,0.7,x,0.4601,0,161,161,161,1,0.7,0.3,0.6,0.4,FALSE,,,,,,,,,,,,,,,,,,,,,,,,,,,,,,,,,
GOSH_A6,2023-11-10_09h54.46.496,two_step_task_legacy,2022.2.4,Win32,60.11060351,41,learning,0,resources/alien1_norm.png,0.7,resources/alien2_norm.png,0.3,TRUE,TRUE,3,0.423005309,red,m,0.2499,alien1,TRUE,2,0.621571749,95,1,0.7,x,0.4161,0,162,162,162,1,0.7,0.3,0.6,0.4,FALSE,,,,,,,,,,,,,,,,,,,,,,,,,,,,,,,,,
GOSH_A6,2023-11-10_09h54.46.496,two_step_task_legacy,2022.2.4,Win32,60.11060351,41,learning,0,resources/alien2_norm.png,0.3,resources/alien1_norm.png,0.7,TRUE,TRUE,3,0.629916706,red,m,0.2465,alien1,TRUE,2,0.420743863,96,1,0.7,m,0.5104,0,163,163,163,1,0.7,0.3,0.6,0.4,TRUE,,,,,,,,,,,,,,,,,,,,,,,,,,,,,,,,,
GOSH_A6,2023-11-10_09h54.46.496,two_step_task_legacy,2022.2.4,Win32,60.11060351,41,learning,1,resources/alien4_norm.png,0.4,resources/alien3_norm.png,0.6,TRUE,TRUE,2,0.89590504,purple,m,0.2688,alien4,TRUE,2,0.215745893,97,1,0.4,x,1.1535,0,164,164,164,1,0.7,0.3,0.6,0.4,TRUE,,,,,,,,,,,,,,,,,,,,,,,,,,,,,,,,,
GOSH_A6,2023-11-10_09h54.46.496,two_step_task_legacy,2022.2.4,Win32,60.11060351,41,learning,1,resources/alien4_norm.png,0.4,resources/alien3_norm.png,0.6,TRUE,TRUE,2,0.882695937,purple,m,0.2702,alien3,TRUE,3,0.779844054,97,0,0.6,m,0.4919,0,165,165,165,1,0.7,0.3,0.6,0.4,TRUE,,,,,,,,,,,,,,,,,,,,,,,,,,,,,,,,,
GOSH_A6,2023-11-10_09h54.46.496,two_step_task_legacy,2022.2.4,Win32,60.11060351,41,learning,0,resources/alien2_norm.png,0.3,resources/alien1_norm.png,0.7,TRUE,TRUE,3,0.493174117,red,m,0.365,alien1,TRUE,2,0.31938063,98,1,0.7,m,0.7705,0,166,166,166,1,0.7,0.3,0.6,0.4,TRUE,,,,,,,,,,,,,,,,,,,,,,,,,,,,,,,,,
GOSH_A6,2023-11-10_09h54.46.496,two_step_task_legacy,2022.2.4,Win32,60.11060351,41,learning,0,resources/alien1_norm.png,0.7,resources/alien2_norm.png,0.3,TRUE,TRUE,3,0.1844728,red,m,0.2943,alien1,TRUE,2,0.541307444,99,1,0.7,x,1.0247,0,167,167,167,1,0.7,0.3,0.6,0.4,FALSE,,,,,,,,,,,,,,,,,,,,,,,,,,,,,,,,,
GOSH_A6,2023-11-10_09h54.46.496,two_step_task_legacy,2022.2.4,Win32,60.11060351,41,learning,1,resources/alien3_norm.png,0.6,resources/alien4_norm.png,0.4,TRUE,TRUE,2,0.89293924,purple,m,0.2588,alien4,TRUE,3,0.745491602,99,0,0.4,m,1.3606,0,168,168,168,1,0.7,0.3,0.6,0.4,FALSE,,,,,,,,,,,,,,,,,,,,,,,,,,,,,,,,,
GOSH_A6,2023-11-10_09h54.46.496,two_step_task_legacy,2022.2.4,Win32,60.11060351,41,learning,0,resources/alien2_norm.png,0.3,resources/alien1_norm.png,0.7,TRUE,TRUE,3,0.616762493,red,m,0.3499,alien1,TRUE,2,0.38850382,100,1,0.7,m,0.8067,0,169,169,169,1,0.7,0.3,0.6,0.4,TRUE,,,,,,,,,,,,,,,,,,,,,,,,,,,,,,,,,
GOSH_A6,2023-11-10_09h54.46.496,two_step_task_legacy,2022.2.4,Win32,60.11060351,41,learning,0,resources/alien1_norm.png,0.7,resources/alien2_norm.png,0.3,TRUE,TRUE,3,0.663498204,red,m,0.2771,alien1,TRUE,2,0.676506687,101,1,0.7,x,0.7838,0,170,170,170,1,0.7,0.3,0.6,0.4,FALSE,,,,,,,,,,,,,,,,,,,,,,,,,,,,,,,,,
GOSH_A6,2023-11-10_09h54.46.496,two_step_task_legacy,2022.2.4,Win32,60.11060351,41,learning,0,resources/alien1_norm.png,0.7,resources/alien2_norm.png,0.3,TRUE,TRUE,3,0.084652194,red,m,0.2778,alien1,TRUE,2,0.19994921,102,1,0.7,x,0.5683,0,171,171,171,1,0.7,0.3,0.6,0.4,FALSE,,,,,,,,,,,,,,,,,,,,,,,,,,,,,,,,,
GOSH_A6,2023-11-10_09h54.46.496,two_step_task_legacy,2022.2.4,Win32,60.11060351,41,learning,0,resources/alien1_norm.png,0.7,resources/alien2_norm.png,0.3,TRUE,TRUE,3,0.349325716,red,m,0.2966,alien1,TRUE,3,0.895060844,102,0,0.7,x,0.467,0,172,172,172,1,0.7,0.3,0.6,0.4,FALSE,,,,,,,,,,,,,,,,,,,,,,,,,,,,,,,,,
GOSH_A6,2023-11-10_09h54.46.496,two_step_task_legacy,2022.2.4,Win32,60.11060351,41,learning,0,resources/alien1_norm.png,0.7,resources/alien2_norm.png,0.3,TRUE,TRUE,3,0.264716983,red,m,0.2568,alien1,TRUE,2,0.084510648,103,1,0.7,x,0.3799,0,173,173,173,1,0.7,0.3,0.6,0.4,FALSE,,,,,,,,,,,,,,,,,,,,,,,,,,,,,,,,,
GOSH_A6,2023-11-10_09h54.46.496,two_step_task_legacy,2022.2.4,Win32,60.11060351,41,learning,1,resources/alien4_norm.png,0.4,resources/alien3_norm.png,0.6,TRUE,TRUE,2,0.850209661,purple,m,0.2477,alien3,TRUE,2,0.038184139,104,1,0.6,m,1.1373,0,174,174,174,1,0.7,0.3,0.6,0.4,TRUE,,,,,,,,,,,,,,,,,,,,,,,,,,,,,,,,,
GOSH_A6,2023-11-10_09h54.46.496,two_step_task_legacy,2022.2.4,Win32,60.11060351,41,learning,0,resources/alien2_norm.png,0.3,resources/alien1_norm.png,0.7,TRUE,TRUE,3,0.105604863,red,m,0.2728,alien1,TRUE,3,0.956475723,104,0,0.7,m,0.4333,0,175,175,175,1,0.7,0.3,0.6,0.4,TRUE,,,,,,,,,,,,,,,,,,,,,,,,,,,,,,,,,
GOSH_A6,2023-11-10_09h54.46.496,two_step_task_legacy,2022.2.4,Win32,60.11060351,41,learning,0,resources/alien4_norm.png,0.4,resources/alien3_norm.png,0.6,TRUE,TRUE,2,0.363319123,purple,x,0.3734,alien3,TRUE,2,0.349796884,105,1,0.6,m,0.4892,0,176,176,176,1,0.7,0.3,0.6,0.4,TRUE,,,,,,,,,,,,,,,,,,,,,,,,,,,,,,,,,
GOSH_A6,2023-11-10_09h54.46.496,two_step_task_legacy,2022.2.4,Win32,60.11060351,41,learning,1,resources/alien2_norm.png,0.3,resources/alien1_norm.png,0.7,TRUE,TRUE,3,0.821675162,red,x,0.2832,alien1,TRUE,2,0.606803902,106,1,0.7,m,0.6542,0,177,177,177,1,0.7,0.3,0.6,0.4,TRUE,,,,,,,,,,,,,,,,,,,,,,,,,,,,,,,,,
GOSH_A6,2023-11-10_09h54.46.496,two_step_task_legacy,2022.2.4,Win32,60.11060351,41,learning,0,resources/alien3_norm.png,0.6,resources/alien4_norm.png,0.4,TRUE,TRUE,2,0.098376192,purple,x,0.2603,alien3,TRUE,3,0.770467911,106,0,0.6,x,0.4991,0,178,178,178,1,0.7,0.3,0.6,0.4,FALSE,,,,,,,,,,,,,,,,,,,,,,,,,,,,,,,,,
GOSH_A6,2023-11-10_09h54.46.496,two_step_task_legacy,2022.2.4,Win32,60.11060351,41,learning,0,resources/alien4_norm.png,0.4,resources/alien3_norm.png,0.6,TRUE,TRUE,2,0.442218861,purple,x,0.3032,alien3,TRUE,3,0.929432672,106,0,0.6,m,0.5511,0,179,179,179,1,0.7,0.3,0.6,0.4,TRUE,,,,,,,,,,,,,,,,,,,,,,,,,,,,,,,,,
GOSH_A6,2023-11-10_09h54.46.496,two_step_task_legacy,2022.2.4,Win32,60.11060351,41,learning,0,resources/alien4_norm.png,0.4,resources/alien3_norm.png,0.6,TRUE,TRUE,2,0.41624188,purple,x,0.273,alien4,TRUE,3,0.93912309,106,0,0.4,x,0.7231,0,180,180,180,1,0.7,0.3,0.6,0.4,TRUE,,,,,,,,,,,,,,,,,,,,,,,,,,,,,,,,,
GOSH_A6,2023-11-10_09h54.46.496,two_step_task_legacy,2022.2.4,Win32,60.11060351,41,learning,1,resources/alien4_norm.png,0.4,resources/alien3_norm.png,0.6,TRUE,TRUE,2,0.932896311,purple,m,0.2505,alien4,TRUE,3,0.404098687,106,0,0.4,x,1.0848,0,181,181,181,1,0.7,0.3,0.6,0.4,TRUE,,,,,,,,,,,,,,,,,,,,,,,,,,,,,,,,,
GOSH_A6,2023-11-10_09h54.46.496,two_step_task_legacy,2022.2.4,Win32,60.11060351,41,learning,0,resources/alien2_norm.png,0.3,resources/alien1_norm.png,0.7,TRUE,TRUE,3,0.002060596,red,m,0.3162,alien1,TRUE,2,0.557152022,107,1,0.7,m,0.778,0,182,182,182,1,0.7,0.3,0.6,0.4,TRUE,,,,,,,,,,,,,,,,,,,,,,,,,,,,,,,,,
GOSH_A6,2023-11-10_09h54.46.496,two_step_task_legacy,2022.2.4,Win32,60.11060351,41,learning,0,resources/alien1_norm.png,0.7,resources/alien2_norm.png,0.3,TRUE,TRUE,3,0.292308661,red,m,0.283,alien1,TRUE,2,0.592065612,108,1,0.7,x,0.5331,0,183,183,183,1,0.7,0.3,0.6,0.4,FALSE,,,,,,,,,,,,,,,,,,,,,,,,,,,,,,,,,
GOSH_A6,2023-11-10_09h54.46.496,two_step_task_legacy,2022.2.4,Win32,60.11060351,41,learning,1,resources/alien4_norm.png,0.4,resources/alien3_norm.png,0.6,TRUE,TRUE,2,0.722608852,purple,m,0.2432,alien4,TRUE,3,0.768579831,108,0,0.4,x,0.8944,0,184,184,184,1,0.7,0.3,0.6,0.4,TRUE,,,,,,,,,,,,,,,,,,,,,,,,,,,,,,,,,
GOSH_A6,2023-11-10_09h54.46.496,two_step_task_legacy,2022.2.4,Win32,60.11060351,41,learning,0,resources/alien1_norm.png,0.7,resources/alien2_norm.png,0.3,TRUE,TRUE,3,0.423937209,red,m,0.2383,alien1,TRUE,2,0.474091746,109,1,0.7,x,0.6168,0,185,185,185,1,0.7,0.3,0.6,0.4,FALSE,,,,,,,,,,,,,,,,,,,,,,,,,,,,,,,,,
GOSH_A6,2023-11-10_09h54.46.496,two_step_task_legacy,2022.2.4,Win32,60.11060351,41,learning,0,resources/alien2_norm.png,0.3,resources/alien1_norm.png,0.7,TRUE,TRUE,3,0.101073986,red,m,0.3007,alien1,TRUE,2,0.286038895,110,1,0.7,m,0.651,0,186,186,186,1,0.7,0.3,0.6,0.4,TRUE,,,,,,,,,,,,,,,,,,,,,,,,,,,,,,,,,
GOSH_A6,2023-11-10_09h54.46.496,two_step_task_legacy,2022.2.4,Win32,60.11060351,41,learning,1,resources/alien3_norm.png,0.6,resources/alien4_norm.png,0.4,TRUE,TRUE,2,0.895949925,purple,m,0.2846,alien3,TRUE,3,0.661206605,110,0,0.6,x,1.2131,0,187,187,187,1,0.7,0.3,0.6,0.4,FALSE,,,,,,,,,,,,,,,,,,,,,,,,,,,,,,,,,
GOSH_A6,2023-11-10_09h54.46.496,two_step_task_legacy,2022.2.4,Win32,60.11060351,41,learning,0,resources/alien1_norm.png,0.7,resources/alien2_norm.png,0.3,TRUE,TRUE,3,0.371571907,red,m,0.2858,alien1,TRUE,3,0.990591651,110,0,0.7,x,0.4334,0,188,188,188,1,0.7,0.3,0.6,0.4,FALSE,,,,,,,,,,,,,,,,,,,,,,,,,,,,,,,,,
GOSH_A6,2023-11-10_09h54.46.496,two_step_task_legacy,2022.2.4,Win32,60.11060351,41,learning,1,resources/alien4_norm.png,0.4,resources/alien3_norm.png,0.6,TRUE,TRUE,2,0.80588322,purple,m,0.2682,alien4,TRUE,2,0.115989707,111,1,0.4,x,0.8611,0,189,189,189,1,0.7,0.3,0.6,0.4,TRUE,,,,,,,,,,,,,,,,,,,,,,,,,,,,,,,,,
GOSH_A6,2023-11-10_09h54.46.496,two_step_task_legacy,2022.2.4,Win32,60.11060351,41,learning,1,resources/alien3_norm.png,0.6,resources/alien4_norm.png,0.4,TRUE,TRUE,2,0.730457593,purple,m,0.7845,alien4,TRUE,3,0.986146969,111,0,0.4,m,0.7272,0,190,190,190,1,0.7,0.3,0.6,0.4,FALSE,,,,,,,,,,,,,,,,,,,,,,,,,,,,,,,,,
GOSH_A6,2023-11-10_09h54.46.496,two_step_task_legacy,2022.2.4,Win32,60.11060351,41,learning,0,resources/alien1_norm.png,0.7,resources/alien2_norm.png,0.3,TRUE,TRUE,3,0.080406346,red,m,0.271,alien1,TRUE,2,0.017159334,112,1,0.7,x,0.6662,0,191,191,191,1,0.7,0.3,0.6,0.4,FALSE,,,,,,,,,,,,,,,,,,,,,,,,,,,,,,,,,
GOSH_A6,2023-11-10_09h54.46.496,two_step_task_legacy,2022.2.4,Win32,60.11060351,41,learning,0,resources/alien2_norm.png,0.3,resources/alien1_norm.png,0.7,TRUE,TRUE,3,0.170036863,red,m,0.2505,alien1,TRUE,3,0.733121835,112,0,0.7,m,0.4905,0,192,192,192,1,0.7,0.3,0.6,0.4,TRUE,,,,,,,,,,,,,,,,,,,,,,,,,,,,,,,,,
GOSH_A6,2023-11-10_09h54.46.496,two_step_task_legacy,2022.2.4,Win32,60.11060351,41,learning,1,resources/alien4_norm.png,0.4,resources/alien3_norm.png,0.6,TRUE,TRUE,2,0.838241849,purple,m,0.2312,alien3,TRUE,3,0.650077915,112,0,0.6,m,0.8868,0,193,193,193,1,0.7,0.3,0.6,0.4,TRUE,,,,,,,,,,,,,,,,,,,,,,,,,,,,,,,,,
GOSH_A6,2023-11-10_09h54.46.496,two_step_task_legacy,2022.2.4,Win32,60.11060351,41,learning,0,resources/alien1_norm.png,0.7,resources/alien2_norm.png,0.3,TRUE,TRUE,3,0.348211785,red,m,0.2856,alien2,TRUE,2,0.205860114,113,1,0.3,m,0.4941,0,194,194,194,1,0.7,0.3,0.6,0.4,FALSE,,,,,,,,,,,,,,,,,,,,,,,,,,,,,,,,,
GOSH_A6,2023-11-10_09h54.46.496,two_step_task_legacy,2022.2.4,Win32,60.11060351,41,learning,0,resources/alien2_norm.png,0.3,resources/alien1_norm.png,0.7,TRUE,TRUE,3,0.193221732,red,m,0.2612,alien2,TRUE,3,0.447805103,113,0,0.3,x,0.4874,0,195,195,195,1,0.7,0.3,0.6,0.4,TRUE,,,,,,,,,,,,,,,,,,,,,,,,,,,,,,,,,
GOSH_A6,2023-11-10_09h54.46.496,two_step_task_legacy,2022.2.4,Win32,60.11060351,41,learning,0,resources/alien2_norm.png,0.3,resources/alien1_norm.png,0.7,TRUE,TRUE,3,0.358951818,red,m,0.2125,alien2,TRUE,3,0.477973977,113,0,0.3,x,0.4294,0,196,196,196,1,0.7,0.3,0.6,0.4,TRUE,,,,,,,,,,,,,,,,,,,,,,,,,,,,,,,,,
GOSH_A6,2023-11-10_09h54.46.496,two_step_task_legacy,2022.2.4,Win32,60.11060351,41,learning,0,resources/alien2_norm.png,0.3,resources/alien1_norm.png,0.7,TRUE,TRUE,3,0.229703797,red,m,0.2478,alien1,TRUE,2,0.271117213,114,1,0.7,m,0.4343,0,197,197,197,1,0.7,0.3,0.6,0.4,TRUE,,,,,,,,,,,,,,,,,,,,,,,,,,,,,,,,,
GOSH_A6,2023-11-10_09h54.46.496,two_step_task_legacy,2022.2.4,Win32,60.11060351,41,learning,1,resources/alien3_norm.png,0.6,resources/alien4_norm.png,0.4,TRUE,TRUE,2,0.963883702,purple,m,0.2749,alien4,TRUE,3,0.471102332,114,0,0.4,m,0.8769,0,198,198,198,1,0.7,0.3,0.6,0.4,FALSE,,,,,,,,,,,,,,,,,,,,,,,,,,,,,,,,,
GOSH_A6,2023-11-10_09h54.46.496,two_step_task_legacy,2022.2.4,Win32,60.11060351,41,learning,1,resources/alien3_norm.png,0.6,resources/alien4_norm.png,0.4,TRUE,TRUE,2,0.934547589,purple,m,0.2684,alien3,TRUE,2,0.306700927,115,1,0.6,x,0.7102,0,199,199,199,1,0.7,0.3,0.6,0.4,FALSE,,,,,,,,,,,,,,,,,,,,,,,,,,,,,,,,,
GOSH_A6,2023-11-10_09h54.46.496,two_step_task_legacy,2022.2.4,Win32,60.11060351,41,learning,1,resources/alien4_norm.png,0.4,resources/alien3_norm.png,0.6,TRUE,TRUE,2,0.811090163,purple,m,0.3189,alien3,TRUE,2,0.299491978,116,1,0.6,m,0.7501,0,200,200,200,1,0.7,0.3,0.6,0.4,TRUE,,,,,,,,,,,,,,,,,,,,,,,,,,,,,,,,,
GOSH_A6,2023-11-10_09h54.46.496,two_step_task_legacy,2022.2.4,Win32,60.11060351,41,learning,0,resources/alien1_norm.png,0.7,resources/alien2_norm.png,0.3,TRUE,TRUE,3,0.424107425,red,m,0.3174,alien1,TRUE,2,0.053821228,117,1,0.7,x,1.2594,0,201,201,201,1,0.7,0.3,0.6,0.4,FALSE,,,,,,,,,,,,,,,,,,,,,,,,,,,,,,,,,
GOSH_A6,2023-11-10_09h54.46.496,two_step_task_legacy,2022.2.4,Win32,60.11060351,41,learning,0,resources/alien2_norm.png,0.3,resources/alien1_norm.png,0.7,TRUE,TRUE,3,0.478864325,red,m,0.351,alien1,TRUE,3,0.992691819,117,0,0.7,m,0.6233,0,202,202,202,1,0.7,0.3,0.6,0.4,TRUE,,,,,,,,,,,,,,,,,,,,,,,,,,,,,,,,,
GOSH_A6,2023-11-10_09h54.46.496,two_step_task_legacy,2022.2.4,Win32,60.11060351,41,learning,0,resources/alien1_norm.png,0.7,resources/alien2_norm.png,0.3,TRUE,TRUE,3,0.221236197,red,m,0.2833,alien2,TRUE,3,0.49634513,117,0,0.3,m,0.6675,0,203,203,203,1,0.7,0.3,0.6,0.4,FALSE,,,,,,,,,,,,,,,,,,,,,,,,,,,,,,,,,
GOSH_A6,2023-11-10_09h54.46.496,two_step_task_legacy,2022.2.4,Win32,60.11060351,41,learning,1,resources/alien3_norm.png,0.6,resources/alien4_norm.png,0.4,TRUE,TRUE,2,0.701958412,purple,m,0.224,alien3,TRUE,3,0.970872546,117,0,0.6,x,0.7385,0,204,204,204,1,0.7,0.3,0.6,0.4,FALSE,,,,,,,,,,,,,,,,,,,,,,,,,,,,,,,,,
GOSH_A6,2023-11-10_09h54.46.496,two_step_task_legacy,2022.2.4,Win32,60.11060351,41,learning,1,resources/alien3_norm.png,0.6,resources/alien4_norm.png,0.4,TRUE,TRUE,2,0.922842938,purple,m,0.3145,alien3,TRUE,2,0.371133244,118,1,0.6,x,0.4667,0,205,205,205,1,0.7,0.3,0.6,0.4,FALSE,,,,,,,,,,,,,,,,,,,,,,,,,,,,,,,,,
GOSH_A6,2023-11-10_09h54.46.496,two_step_task_legacy,2022.2.4,Win32,60.11060351,41,learning,0,resources/alien2_norm.png,0.3,resources/alien1_norm.png,0.7,TRUE,TRUE,3,0.633736857,red,m,0.2999,alien1,TRUE,2,0.205493186,119,1,0.7,m,0.8191,0,206,206,206,1,0.7,0.3,0.6,0.4,TRUE,,,,,,,,,,,,,,,,,,,,,,,,,,,,,,,,,
GOSH_A6,2023-11-10_09h54.46.496,two_step_task_legacy,2022.2.4,Win32,60.11060351,41,learning,1,resources/alien4_norm.png,0.4,resources/alien3_norm.png,0.6,TRUE,TRUE,2,0.854073202,purple,m,0.3057,alien3,TRUE,3,0.898315316,119,0,0.6,m,0.4903,0,207,207,207,1,0.7,0.3,0.6,0.4,TRUE,,,,,,,,,,,,,,,,,,,,,,,,,,,,,,,,,
GOSH_A6,2023-11-10_09h54.46.496,two_step_task_legacy,2022.2.4,Win32,60.11060351,41,learning,0,resources/alien1_norm.png,0.7,resources/alien2_norm.png,0.3,TRUE,TRUE,3,0.606823282,red,m,0.4895,alien1,TRUE,3,0.837055762,119,0,0.7,x,0.7292,0,208,208,208,1,0.7,0.3,0.6,0.4,FALSE,,,,,,,,,,,,,,,,,,,,,,,,,,,,,,,,,
GOSH_A6,2023-11-10_09h54.46.496,two_step_task_legacy,2022.2.4,Win32,60.11060351,41,learning,0,resources/alien1_norm.png,0.7,resources/alien2_norm.png,0.3,TRUE,TRUE,3,0.55445537,red,m,0.2548,alien1,TRUE,2,0.553834061,120,1,0.7,x,0.5228,0,209,209,209,1,0.7,0.3,0.6,0.4,FALSE,,,,,,,,,,,,,,,,,,,,,,,,,,,,,,,,,
GOSH_A6,2023-11-10_09h54.46.496,two_step_task_legacy,2022.2.4,Win32,60.11060351,41,learning,0,resources/alien1_norm.png,0.7,resources/alien2_norm.png,0.3,TRUE,TRUE,3,0.527641359,red,m,0.262,alien1,TRUE,3,0.959228277,120,0,0.7,x,0.4254,0,210,210,210,1,0.7,0.3,0.6,0.4,FALSE,,,,,,,,,,,,,,,,,,,,,,,,,,,,,,,,,
GOSH_A6,2023-11-10_09h54.46.496,two_step_task_legacy,2022.2.4,Win32,60.11060351,41,learning,1,resources/alien4_norm.png,0.4,resources/alien3_norm.png,0.6,TRUE,TRUE,2,0.988768287,purple,m,0.2508,alien3,TRUE,2,0.406292603,121,1,0.6,m,0.7244,0,211,211,211,1,0.7,0.3,0.6,0.4,TRUE,,,,,,,,,,,,,,,,,,,,,,,,,,,,,,,,,
GOSH_A6,2023-11-10_09h54.46.496,two_step_task_legacy,2022.2.4,Win32,60.11060351,41,learning,0,resources/alien2_norm.png,0.3,resources/alien1_norm.png,0.7,TRUE,TRUE,3,0.668057828,red,m,0.2559,alien1,TRUE,2,0.074804403,122,1,0.7,m,0.4884,0,212,212,212,1,0.7,0.3,0.6,0.4,TRUE,,,,,,,,,,,,,,,,,,,,,,,,,,,,,,,,,
GOSH_A6,2023-11-10_09h54.46.496,two_step_task_legacy,2022.2.4,Win32,60.11060351,41,learning,0,resources/alien1_norm.png,0.7,resources/alien2_norm.png,0.3,TRUE,TRUE,3,0.680182706,red,m,0.2676,alien1,TRUE,2,0.344052302,123,1,0.7,x,0.6512,0,213,213,213,1,0.7,0.3,0.6,0.4,FALSE,,,,,,,,,,,,,,,,,,,,,,,,,,,,,,,,,
GOSH_A6,2023-11-10_09h54.46.496,two_step_task_legacy,2022.2.4,Win32,60.11060351,41,learning,1,resources/alien4_norm.png,0.4,resources/alien3_norm.png,0.6,TRUE,TRUE,2,0.760358358,purple,m,0.183,alien3,TRUE,2,0.433730121,124,1,0.6,m,0.4825,0,214,214,214,1,0.7,0.3,0.6,0.4,TRUE,,,,,,,,,,,,,,,,,,,,,,,,,,,,,,,,,
GOSH_A6,2023-11-10_09h54.46.496,two_step_task_legacy,2022.2.4,Win32,60.11060351,41,learning,1,resources/alien4_norm.png,0.4,resources/alien3_norm.png,0.6,TRUE,TRUE,2,0.943340464,purple,m,0.2452,alien3,TRUE,2,0.262191399,125,1,0.6,m,0.5562,0,215,215,215,1,0.7,0.3,0.6,0.4,TRUE,,,,,,,,,,,,,,,,,,,,,,,,,,,,,,,,,
GOSH_A6,2023-11-10_09h54.46.496,two_step_task_legacy,2022.2.4,Win32,60.11060351,41,learning,0,resources/alien1_norm.png,0.7,resources/alien2_norm.png,0.3,TRUE,TRUE,3,0.269139166,red,m,0.3377,alien1,TRUE,2,0.263254436,126,1,0.7,x,0.5752,0,216,216,216,1,0.7,0.3,0.6,0.4,FALSE,,,,,,,,,,,,,,,,,,,,,,,,,,,,,,,,,
GOSH_A6,2023-11-10_09h54.46.496,two_step_task_legacy,2022.2.4,Win32,60.11060351,41,learning,1,resources/alien4_norm.png,0.4,resources/alien3_norm.png,0.6,TRUE,TRUE,2,0.845137581,purple,m,0.2867,alien3,TRUE,3,0.751578016,126,0,0.6,m,0.6827,0,217,217,217,1,0.7,0.3,0.6,0.4,TRUE,,,,,,,,,,,,,,,,,,,,,,,,,,,,,,,,,
GOSH_A6,2023-11-10_09h54.46.496,two_step_task_legacy,2022.2.4,Win32,60.11060351,41,learning,0,resources/alien1_norm.png,0.7,resources/alien2_norm.png,0.3,TRUE,TRUE,3,0.292137423,red,m,0.3131,alien1,TRUE,2,0.412169443,127,1,0.7,x,0.5699,0,218,218,218,1,0.7,0.3,0.6,0.4,FALSE,,,,,,,,,,,,,,,,,,,,,,,,,,,,,,,,,
GOSH_A6,2023-11-10_09h54.46.496,two_step_task_legacy,2022.2.4,Win32,60.11060351,41,learning,0,resources/alien1_norm.png,0.7,resources/alien2_norm.png,0.3,TRUE,TRUE,3,0.647716108,red,m,0.2569,alien1,TRUE,3,0.912961143,127,0,0.7,x,0.5176,0,219,219,219,1,0.7,0.3,0.6,0.4,FALSE,,,,,,,,,,,,,,,,,,,,,,,,,,,,,,,,,
GOSH_A6,2023-11-10_09h54.46.496,two_step_task_legacy,2022.2.4,Win32,60.11060351,41,learning,0,resources/alien1_norm.png,0.7,resources/alien2_norm.png,0.3,TRUE,TRUE,3,0.50552783,red,m,0.2392,alien1,TRUE,2,0.247847002,128,1,0.7,x,0.5233,0,220,220,220,1,0.7,0.3,0.6,0.4,FALSE,,,,,,,,,,,,,,,,,,,,,,,,,,,,,,,,,
GOSH_A6,2023-11-10_09h54.46.496,two_step_task_legacy,2022.2.4,Win32,60.11060351,41,learning,1,resources/alien2_norm.png,0.3,resources/alien1_norm.png,0.7,TRUE,TRUE,3,0.882028624,red,x,0.2546,alien1,TRUE,2,0.250430658,129,1,0.7,m,0.7565,0,221,221,221,1,0.7,0.3,0.6,0.4,TRUE,,,,,,,,,,,,,,,,,,,,,,,,,,,,,,,,,
GOSH_A6,2023-11-10_09h54.46.496,two_step_task_legacy,2022.2.4,Win32,60.11060351,41,learning,1,resources/alien1_norm.png,0.7,resources/alien2_norm.png,0.3,TRUE,TRUE,3,0.747739568,red,x,0.4168,alien1,TRUE,2,0.455360478,130,1,0.7,x,0.4902,0,222,222,222,1,0.7,0.3,0.6,0.4,FALSE,,,,,,,,,,,,,,,,,,,,,,,,,,,,,,,,,
GOSH_A6,2023-11-10_09h54.46.496,two_step_task_legacy,2022.2.4,Win32,60.11060351,41,learning,1,resources/alien1_norm.png,0.7,resources/alien2_norm.png,0.3,TRUE,TRUE,3,0.740594204,red,x,0.3145,alien1,TRUE,2,0.156046025,131,1,0.7,x,0.5022,0,223,223,223,1,0.7,0.3,0.6,0.4,FALSE,,,,,,,,,,,,,,,,,,,,,,,,,,,,,,,,,
GOSH_A6,2023-11-10_09h54.46.496,two_step_task_legacy,2022.2.4,Win32,60.11060351,41,learning,1,resources/alien1_norm.png,0.7,resources/alien2_norm.png,0.3,TRUE,TRUE,3,0.748662219,red,x,0.3109,alien1,TRUE,2,0.274571224,132,1,0.7,x,0.4183,0,224,224,224,1,0.7,0.3,0.6,0.4,FALSE,,,,,,,,,,,,,,,,,,,,,,,,,,,,,,,,,
GOSH_A6,2023-11-10_09h54.46.496,two_step_task_legacy,2022.2.4,Win32,60.11060351,41,learning,1,resources/alien2_norm.png,0.3,resources/alien1_norm.png,0.7,TRUE,TRUE,3,0.868299741,red,x,0.3817,alien1,TRUE,2,0.498118508,133,1,0.7,m,0.8502,0,225,225,225,1,0.7,0.3,0.6,0.4,TRUE,,,,,,,,,,,,,,,,,,,,,,,,,,,,,,,,,
GOSH_A6,2023-11-10_09h54.46.496,two_step_task_legacy,2022.2.4,Win32,60.11060351,41,learning,0,resources/alien3_norm.png,0.6,resources/alien4_norm.png,0.4,TRUE,TRUE,2,0.354715345,purple,x,0.3535,alien3,TRUE,2,0.039085529,134,1,0.6,x,0.846,0,226,226,226,1,0.7,0.3,0.6,0.4,FALSE,,,,,,,,,,,,,,,,,,,,,,,,,,,,,,,,,
GOSH_A6,2023-11-10_09h54.46.496,two_step_task_legacy,2022.2.4,Win32,60.11060351,41,learning,0,resources/alien3_norm.png,0.6,resources/alien4_norm.png,0.4,TRUE,TRUE,2,0.059537098,purple,x,0.3007,alien3,TRUE,2,0.317267338,135,1,0.6,x,0.6446,0,227,227,227,1,0.7,0.3,0.6,0.4,FALSE,,,,,,,,,,,,,,,,,,,,,,,,,,,,,,,,,
GOSH_A6,2023-11-10_09h54.46.496,two_step_task_legacy,2022.2.4,Win32,60.11060351,41,learning,1,resources/alien2_norm.png,0.3,resources/alien1_norm.png,0.7,TRUE,TRUE,3,0.789264986,red,x,0.2997,alien1,TRUE,2,0.649920373,136,1,0.7,m,0.5501,0,228,228,228,1,0.7,0.3,0.6,0.4,TRUE,,,,,,,,,,,,,,,,,,,,,,,,,,,,,,,,,
GOSH_A6,2023-11-10_09h54.46.496,two_step_task_legacy,2022.2.4,Win32,60.11060351,41,learning,0,resources/alien4_norm.png,0.4,resources/alien3_norm.png,0.6,TRUE,TRUE,2,0.692481382,purple,x,0.2732,alien3,TRUE,3,0.754907708,136,0,0.6,m,0.6012,0,229,229,229,1,0.7,0.3,0.6,0.4,TRUE,,,,,,,,,,,,,,,,,,,,,,,,,,,,,,,,,
GOSH_A6,2023-11-10_09h54.46.496,two_step_task_legacy,2022.2.4,Win32,60.11060351,41,learning,0,resources/alien4_norm.png,0.4,resources/alien3_norm.png,0.6,TRUE,TRUE,2,0.304264574,purple,x,0.2199,alien3,TRUE,3,0.821740552,136,0,0.6,m,0.4857,0,230,230,230,1,0.7,0.3,0.6,0.4,TRUE,,,,,,,,,,,,,,,,,,,,,,,,,,,,,,,,,
GOSH_A6,2023-11-10_09h54.46.496,two_step_task_legacy,2022.2.4,Win32,60.11060351,41,learning,0,resources/alien3_norm.png,0.6,resources/alien4_norm.png,0.4,TRUE,TRUE,2,0.080531424,purple,x,0.2619,alien4,TRUE,3,0.682237197,136,0,0.4,m,0.7284,0,231,231,231,1,0.7,0.3,0.6,0.4,FALSE,,,,,,,,,,,,,,,,,,,,,,,,,,,,,,,,,
GOSH_A6,2023-11-10_09h54.46.496,two_step_task_legacy,2022.2.4,Win32,60.11060351,41,learning,0,resources/alien2_norm.png,0.3,resources/alien1_norm.png,0.7,TRUE,TRUE,3,0.33932232,red,m,0.2603,alien1,TRUE,3,0.950782662,136,0,0.7,m,0.4155,0,232,232,232,1,0.7,0.3,0.6,0.4,TRUE,,,,,,,,,,,,,,,,,,,,,,,,,,,,,,,,,
GOSH_A6,2023-11-10_09h54.46.496,two_step_task_legacy,2022.2.4,Win32,60.11060351,41,learning,0,resources/alien2_norm.png,0.3,resources/alien1_norm.png,0.7,TRUE,TRUE,3,0.026082115,red,m,0.2421,alien2,TRUE,2,0.088374482,137,1,0.3,x,0.4165,0,233,233,233,1,0.7,0.3,0.6,0.4,TRUE,,,,,,,,,,,,,,,,,,,,,,,,,,,,,,,,,
GOSH_A6,2023-11-10_09h54.46.496,two_step_task_legacy,2022.2.4,Win32,60.11060351,41,learning,0,resources/alien1_norm.png,0.7,resources/alien2_norm.png,0.3,TRUE,TRUE,3,0.523272703,red,m,0.2342,alien2,TRUE,3,0.845436608,137,0,0.3,m,0.5343,0,234,234,234,1,0.7,0.3,0.6,0.4,FALSE,,,,,,,,,,,,,,,,,,,,,,,,,,,,,,,,,
GOSH_A6,2023-11-10_09h54.46.496,two_step_task_legacy,2022.2.4,Win32,60.11060351,41,learning,0,resources/alien2_norm.png,0.3,resources/alien1_norm.png,0.7,TRUE,TRUE,3,0.567890978,red,m,0.2409,alien2,TRUE,3,0.329208149,137,0,0.3,x,0.4557,0,235,235,235,1,0.7,0.3,0.6,0.4,TRUE,,,,,,,,,,,,,,,,,,,,,,,,,,,,,,,,,
GOSH_A6,2023-11-10_09h54.46.496,two_step_task_legacy,2022.2.4,Win32,60.11060351,41,learning,0,resources/alien1_norm.png,0.7,resources/alien2_norm.png,0.3,TRUE,TRUE,3,0.511837038,red,m,0.2498,alien1,TRUE,2,0.548273844,138,1,0.7,x,0.4704,0,236,236,236,1,0.7,0.3,0.6,0.4,FALSE,,,,,,,,,,,,,,,,,,,,,,,,,,,,,,,,,
GOSH_A6,2023-11-10_09h54.46.496,two_step_task_legacy,2022.2.4,Win32,60.11060351,41,learning,1,resources/alien4_norm.png,0.4,resources/alien3_norm.png,0.6,TRUE,TRUE,2,0.882344953,purple,m,0.3241,alien4,TRUE,2,0.160011443,139,1,0.4,x,0.7531,0,237,237,237,1,0.7,0.3,0.6,0.4,TRUE,,,,,,,,,,,,,,,,,,,,,,,,,,,,,,,,,
GOSH_A6,2023-11-10_09h54.46.496,two_step_task_legacy,2022.2.4,Win32,60.11060351,41,learning,0,resources/alien1_norm.png,0.7,resources/alien2_norm.png,0.3,TRUE,TRUE,3,0.492109979,red,m,0.3191,alien1,TRUE,3,0.752694438,139,0,0.7,x,0.3901,0,238,238,238,1,0.7,0.3,0.6,0.4,FALSE,,,,,,,,,,,,,,,,,,,,,,,,,,,,,,,,,
GOSH_A6,2023-11-10_09h54.46.496,two_step_task_legacy,2022.2.4,Win32,60.11060351,41,learning,0,resources/alien1_norm.png,0.7,resources/alien2_norm.png,0.3,TRUE,TRUE,3,0.002014606,red,m,0.2724,alien1,TRUE,2,0.233777164,140,1,0.7,x,0.4873,0,239,239,239,1,0.7,0.3,0.6,0.4,FALSE,,,,,,,,,,,,,,,,,,,,,,,,,,,,,,,,,
GOSH_A6,2023-11-10_09h54.46.496,two_step_task_legacy,2022.2.4,Win32,60.11060351,41,learning,0,resources/alien3_norm.png,0.6,resources/alien4_norm.png,0.4,TRUE,TRUE,2,0.125192536,purple,x,0.2684,alien4,TRUE,3,0.819354032,140,0,0.4,m,0.5168,0,240,240,240,1,0.7,0.3,0.6,0.4,FALSE,,,,,,,,,,,,,,,,,,,,,,,,,,,,,,,,,
GOSH_A6,2023-11-10_09h54.46.496,two_step_task_legacy,2022.2.4,Win32,60.11060351,41,learning,1,resources/alien4_norm.png,0.4,resources/alien3_norm.png,0.6,TRUE,TRUE,2,0.897762785,purple,m,0.2441,alien3,TRUE,2,0.518242561,141,1,0.6,m,0.9344,0,241,241,241,1,0.7,0.3,0.6,0.4,TRUE,,,,,,,,,,,,,,,,,,,,,,,,,,,,,,,,,
GOSH_A6,2023-11-10_09h54.46.496,two_step_task_legacy,2022.2.4,Win32,60.11060351,41,learning,0,resources/alien1_norm.png,0.7,resources/alien2_norm.png,0.3,TRUE,TRUE,3,0.423263556,red,m,0.3427,alien1,TRUE,3,0.997686159,141,0,0.7,x,0.9836,0,242,242,242,1,0.7,0.3,0.6,0.4,FALSE,,,,,,,,,,,,,,,,,,,,,,,,,,,,,,,,,
GOSH_A6,2023-11-10_09h54.46.496,two_step_task_legacy,2022.2.4,Win32,60.11060351,41,learning,0,resources/alien3_norm.png,0.6,resources/alien4_norm.png,0.4,TRUE,TRUE,2,0.500120768,purple,x,0.0309,alien3,TRUE,2,0.503525734,142,1,0.6,x,0.4694,0,243,243,243,1,0.7,0.3,0.6,0.4,FALSE,,,,,,,,,,,,,,,,,,,,,,,,,,,,,,,,,
GOSH_A6,2023-11-10_09h54.46.496,two_step_task_legacy,2022.2.4,Win32,60.11060351,41,learning,1,resources/alien1_norm.png,0.7,resources/alien2_norm.png,0.3,TRUE,TRUE,3,0.96715736,red,x,0.3,alien1,TRUE,3,0.786800473,142,0,0.7,x,0.7003,0,244,244,244,1,0.7,0.3,0.6,0.4,FALSE,,,,,,,,,,,,,,,,,,,,,,,,,,,,,,,,,
GOSH_A6,2023-11-10_09h54.46.496,two_step_task_legacy,2022.2.4,Win32,60.11060351,41,learning,0,resources/alien3_norm.png,0.6,resources/alien4_norm.png,0.4,TRUE,TRUE,2,0.335874488,purple,x,0.2647,alien3,TRUE,2,0.593042498,143,1,0.6,x,0.9203,0,245,245,245,1,0.7,0.3,0.6,0.4,FALSE,,,,,,,,,,,,,,,,,,,,,,,,,,,,,,,,,
GOSH_A6,2023-11-10_09h54.46.496,two_step_task_legacy,2022.2.4,Win32,60.11060351,41,learning,0,resources/alien3_norm.png,0.6,resources/alien4_norm.png,0.4,TRUE,TRUE,2,0.379161434,purple,x,0.2685,alien3,TRUE,3,0.863318106,143,0,0.6,x,0.4354,0,246,246,246,1,0.7,0.3,0.6,0.4,FALSE,,,,,,,,,,,,,,,,,,,,,,,,,,,,,,,,,
GOSH_A6,2023-11-10_09h54.46.496,two_step_task_legacy,2022.2.4,Win32,60.11060351,41,learning,0,resources/alien3_norm.png,0.6,resources/alien4_norm.png,0.4,TRUE,TRUE,2,0.081934292,purple,x,0.2501,alien3,TRUE,3,0.703407465,143,0,0.6,x,0.4935,0,247,247,247,1,0.7,0.3,0.6,0.4,FALSE,,,,,,,,,,,,,,,,,,,,,,,,,,,,,,,,,
GOSH_A6,2023-11-10_09h54.46.496,two_step_task_legacy,2022.2.4,Win32,60.11060351,41,learning,0,resources/alien4_norm.png,0.4,resources/alien3_norm.png,0.6,TRUE,TRUE,2,0.612394003,purple,x,0.1933,alien4,TRUE,2,0.29727559,144,1,0.4,x,0.5659,0,248,248,248,1,0.7,0.3,0.6,0.4,TRUE,,,,,,,,,,,,,,,,,,,,,,,,,,,,,,,,,
GOSH_A6,2023-11-10_09h54.46.496,two_step_task_legacy,2022.2.4,Win32,60.11060351,41,learning,1,resources/alien1_norm.png,0.7,resources/alien2_norm.png,0.3,TRUE,TRUE,3,0.859354501,red,x,0.3237,alien2,TRUE,3,0.605814344,144,0,0.3,m,0.8037,0,249,249,249,1,0.7,0.3,0.6,0.4,FALSE,,,,,,,,,,,,,,,,,,,,,,,,,,,,,,,,,
GOSH_A6,2023-11-10_09h54.46.496,two_step_task_legacy,2022.2.4,Win32,60.11060351,41,learning,0,resources/alien4_norm.png,0.4,resources/alien3_norm.png,0.6,TRUE,TRUE,2,0.303698665,purple,x,0.2506,alien4,TRUE,3,0.423855868,144,0,0.4,x,0.5668,0,250,250,250,1,0.7,0.3,0.6,0.4,TRUE,,,,,,,,,,,,,,,,,,,,,,,,,,,,,,,,,
GOSH_A6,2023-11-10_09h54.46.496,two_step_task_legacy,2022.2.4,Win32,60.11060351,41,learning,0,resources/alien3_norm.png,0.6,resources/alien4_norm.png,0.4,TRUE,TRUE,2,0.673774785,purple,x,0.3173,alien3,TRUE,3,0.776744011,144,0,0.6,x,0.5197,0,251,251,251,1,0.7,0.3,0.6,0.4,FALSE,,,,,,,,,,,,,,,,,,,,,,,,,,,,,,,,,
GOSH_A6,2023-11-10_09h54.46.496,two_step_task_legacy,2022.2.4,Win32,60.11060351,41,learning,1,resources/alien1_norm.png,0.7,resources/alien2_norm.png,0.3,TRUE,TRUE,3,0.734847884,red,x,0.3058,alien2,TRUE,3,0.504359243,144,0,0.3,m,0.5993,0,252,252,252,1,0.7,0.3,0.6,0.4,FALSE,,,,,,,,,,,,,,,,,,,,,,,,,,,,,,,,,
GOSH_A6,2023-11-10_09h54.46.496,two_step_task_legacy,2022.2.4,Win32,60.11060351,41,learning,1,resources/alien2_norm.png,0.3,resources/alien1_norm.png,0.7,TRUE,TRUE,3,0.729959551,red,x,0.256,alien1,TRUE,2,0.132758749,145,1,0.7,m,1.2604,0,253,253,253,1,0.7,0.3,0.6,0.4,TRUE,,,,,,,,,,,,,,,,,,,,,,,,,,,,,,,,,
GOSH_A6,2023-11-10_09h54.46.496,two_step_task_legacy,2022.2.4,Win32,60.11060351,41,learning,0,resources/alien3_norm.png,0.6,resources/alien4_norm.png,0.4,TRUE,TRUE,2,0.30028091,purple,x,0.3053,alien3,TRUE,3,0.615758173,145,0,0.6,x,0.6324,0,254,254,254,1,0.7,0.3,0.6,0.4,FALSE,,,,,,,,,,,,,,,,,,,,,,,,,,,,,,,,,
GOSH_A6,2023-11-10_09h54.46.496,two_step_task_legacy,2022.2.4,Win32,60.11060351,41,learning,0,resources/alien4_norm.png,0.4,resources/alien3_norm.png,0.6,TRUE,TRUE,2,0.612193621,purple,x,0.2997,alien4,TRUE,2,0.128361956,146,1,0.4,x,0.6234,0,255,255,255,1,0.7,0.3,0.6,0.4,TRUE,,,,,,,,,,,,,,,,,,,,,,,,,,,,,,,,,
GOSH_A6,2023-11-10_09h54.46.496,two_step_task_legacy,2022.2.4,Win32,60.11060351,41,learning,0,resources/alien3_norm.png,0.6,resources/alien4_norm.png,0.4,TRUE,TRUE,2,0.055491964,purple,x,0.2837,alien4,TRUE,3,0.563001686,146,0,0.4,m,0.5374,0,256,256,256,1,0.7,0.3,0.6,0.4,FALSE,,,,,,,,,,,,,,,,,,,,,,,,,,,,,,,,,
GOSH_A6,2023-11-10_09h54.46.496,two_step_task_legacy,2022.2.4,Win32,60.11060351,41,learning,0,resources/alien4_norm.png,0.4,resources/alien3_norm.png,0.6,TRUE,TRUE,2,0.04347379,purple,x,0.3998,alien4,TRUE,3,0.898363649,146,0,0.4,x,0.5678,0,257,257,257,1,0.7,0.3,0.6,0.4,TRUE,,,,,,,,,,,,,,,,,,,,,,,,,,,,,,,,,
GOSH_A6,2023-11-10_09h54.46.496,two_step_task_legacy,2022.2.4,Win32,60.11060351,41,learning,0,resources/alien3_norm.png,0.6,resources/alien4_norm.png,0.4,TRUE,TRUE,2,0.145825481,purple,x,0.2517,alien4,TRUE,2,0.112564428,147,1,0.4,m,0.5373,0,258,258,258,1,0.7,0.3,0.6,0.4,FALSE,,,,,,,,,,,,,,,,,,,,,,,,,,,,,,,,,
GOSH_A6,2023-11-10_09h54.46.496,two_step_task_legacy,2022.2.4,Win32,60.11060351,41,learning,0,resources/alien4_norm.png,0.4,resources/alien3_norm.png,0.6,TRUE,TRUE,2,0.614255505,purple,x,0.2621,alien4,TRUE,3,0.637792723,147,0,0.4,x,0.6174,0,259,259,259,1,0.7,0.3,0.6,0.4,TRUE,,,,,,,,,,,,,,,,,,,,,,,,,,,,,,,,,
GOSH_A6,2023-11-10_09h54.46.496,two_step_task_legacy,2022.2.4,Win32,60.11060351,41,learning,1,resources/alien4_norm.png,0.4,resources/alien3_norm.png,0.6,TRUE,TRUE,2,0.942264653,purple,m,0.2913,alien3,TRUE,3,0.772669744,147,0,0.6,m,0.8458,0,260,260,260,1,0.7,0.3,0.6,0.4,TRUE,,,,,,,,,,,,,,,,,,,,,,,,,,,,,,,,,
GOSH_A6,2023-11-10_09h54.46.496,two_step_task_legacy,2022.2.4,Win32,60.11060351,41,learning,1,resources/alien2_norm.png,0.3,resources/alien1_norm.png,0.7,TRUE,TRUE,3,0.805335996,red,x,0.3982,alien1,TRUE,2,0.324214142,148,1,0.7,m,0.8503,0,261,261,261,1,0.7,0.3,0.6,0.4,TRUE,,,,,,,,,,,,,,,,,,,,,,,,,,,,,,,,,
GOSH_A6,2023-11-10_09h54.46.496,two_step_task_legacy,2022.2.4,Win32,60.11060351,41,learning,0,resources/alien2_norm.png,0.3,resources/alien1_norm.png,0.7,TRUE,TRUE,3,0.275731546,red,m,0.3951,alien1,TRUE,2,0.064454915,149,1,0.7,m,0.6942,0,262,262,262,1,0.7,0.3,0.6,0.4,TRUE,,,,,,,,,,,,,,,,,,,,,,,,,,,,,,,,,
GOSH_A6,2023-11-10_09h54.46.496,two_step_task_legacy,2022.2.4,Win32,60.11060351,41,learning,0,resources/alien2_norm.png,0.3,resources/alien1_norm.png,0.7,TRUE,TRUE,3,0.455736653,red,m,0.2164,alien1,TRUE,2,0.674973224,150,1,0.7,m,0.3874,0,263,263,263,1,0.7,0.3,0.6,0.4,TRUE,,,,,,,,,,,,,,,,,,,,,,,,,,,,,,,,,
GOSH_A6,2023-11-10_09h54.46.496,two_step_task_legacy,2022.2.4,Win32,60.11060351,41,learning,1,resources/alien3_norm.png,0.6,resources/alien4_norm.png,0.4,TRUE,TRUE,2,0.883321312,purple,m,0.3252,alien3,TRUE,3,0.705721733,150,0,0.6,x,0.7183,0,264,264,264,1,0.7,0.3,0.6,0.4,FALSE,,,,,,,,,,,,,,,,,,,,,,,,,,,,,,,,,
GOSH_A6,2023-11-10_09h54.46.496,two_step_task_legacy,2022.2.4,Win32,60.11060351,41,learning,0,resources/alien2_norm.png,0.3,resources/alien1_norm.png,0.7,TRUE,TRUE,3,0.62015054,red,m,0.434,alien1,TRUE,2,0.561205345,151,1,0.7,m,0.5478,0,265,265,265,1,0.7,0.3,0.6,0.4,TRUE,,,,,,,,,,,,,,,,,,,,,,,,,,,,,,,,,
GOSH_A6,2023-11-10_09h54.46.496,two_step_task_legacy,2022.2.4,Win32,60.11060351,41,learning,0,resources/alien2_norm.png,0.3,resources/alien1_norm.png,0.7,TRUE,TRUE,3,0.430644452,red,m,0.3064,alien1,TRUE,3,0.944967754,151,0,0.7,m,0.5443,0,266,266,266,1,0.7,0.3,0.6,0.4,TRUE,,,,,,,,,,,,,,,,,,,,,,,,,,,,,,,,,
GOSH_A6,2023-11-10_09h54.46.496,two_step_task_legacy,2022.2.4,Win32,60.11060351,41,learning,0,resources/alien2_norm.png,0.3,resources/alien1_norm.png,0.7,TRUE,TRUE,3,0.369159789,red,m,0.2667,alien1,TRUE,2,0.410767528,152,1,0.7,m,0.5287,0,267,267,267,1,0.7,0.3,0.6,0.4,TRUE,,,,,,,,,,,,,,,,,,,,,,,,,,,,,,,,,
GOSH_A6,2023-11-10_09h54.46.496,two_step_task_legacy,2022.2.4,Win32,60.11060351,41,learning,1,resources/alien4_norm.png,0.4,resources/alien3_norm.png,0.6,TRUE,TRUE,2,0.709755243,purple,m,0.2647,alien3,TRUE,2,0.286730717,153,1,0.6,m,0.9171,0,268,268,268,1,0.7,0.3,0.6,0.4,TRUE,,,,,,,,,,,,,,,,,,,,,,,,,,,,,,,,,
GOSH_A6,2023-11-10_09h54.46.496,two_step_task_legacy,2022.2.4,Win32,60.11060351,41,learning,0,resources/alien2_norm.png,0.3,resources/alien1_norm.png,0.7,TRUE,TRUE,3,0.288993801,red,m,0.233,alien1,TRUE,2,0.226499107,154,1,0.7,m,0.4021,0,269,269,269,1,0.7,0.3,0.6,0.4,TRUE,,,,,,,,,,,,,,,,,,,,,,,,,,,,,,,,,
GOSH_A6,2023-11-10_09h54.46.496,two_step_task_legacy,2022.2.4,Win32,60.11060351,41,learning,0,resources/alien1_norm.png,0.7,resources/alien2_norm.png,0.3,TRUE,TRUE,3,0.004215412,red,m,0.2643,alien1,TRUE,2,0.268533884,155,1,0.7,x,0.5003,0,270,270,270,1,0.7,0.3,0.6,0.4,FALSE,,,,,,,,,,,,,,,,,,,,,,,,,,,,,,,,,
GOSH_A6,2023-11-10_09h54.46.496,two_step_task_legacy,2022.2.4,Win32,60.11060351,41,learning,0,resources/alien1_norm.png,0.7,resources/alien2_norm.png,0.3,TRUE,TRUE,3,0.157239488,red,m,0.2758,alien1,TRUE,2,0.05870037,156,1,0.7,x,0.466,0,271,271,271,1,0.7,0.3,0.6,0.4,FALSE,,,,,,,,,,,,,,,,,,,,,,,,,,,,,,,,,
GOSH_A6,2023-11-10_09h54.46.496,two_step_task_legacy,2022.2.4,Win32,60.11060351,41,learning,1,resources/alien4_norm.png,0.4,resources/alien3_norm.png,0.6,TRUE,TRUE,2,0.878664825,purple,m,0.2701,alien4,TRUE,2,0.365893089,157,1,0.4,x,0.8664,0,272,272,272,1,0.7,0.3,0.6,0.4,TRUE,,,,,,,,,,,,,,,,,,,,,,,,,,,,,,,,,
GOSH_A6,2023-11-10_09h54.46.496,two_step_task_legacy,2022.2.4,Win32,60.11060351,41,learning,1,resources/alien3_norm.png,0.6,resources/alien4_norm.png,0.4,TRUE,TRUE,2,0.936717906,purple,m,0.3189,alien4,TRUE,3,0.505825186,157,0,0.4,m,0.8745,0,273,273,273,1,0.7,0.3,0.6,0.4,FALSE,,,,,,,,,,,,,,,,,,,,,,,,,,,,,,,,,
GOSH_A6,2023-11-10_09h54.46.496,two_step_task_legacy,2022.2.4,Win32,60.11060351,41,learning,1,resources/alien3_norm.png,0.6,resources/alien4_norm.png,0.4,TRUE,TRUE,2,0.768691381,purple,m,0.3082,alien4,TRUE,3,0.952637519,157,0,0.4,m,0.6046,0,274,274,274,1,0.7,0.3,0.6,0.4,FALSE,,,,,,,,,,,,,,,,,,,,,,,,,,,,,,,,,
GOSH_A6,2023-11-10_09h54.46.496,two_step_task_legacy,2022.2.4,Win32,60.11060351,41,learning,0,resources/alien2_norm.png,0.3,resources/alien1_norm.png,0.7,TRUE,TRUE,3,0.120988865,red,m,0.2512,alien1,TRUE,2,0.039940465,158,1,0.7,m,0.6001,0,275,275,275,1,0.7,0.3,0.6,0.4,TRUE,,,,,,,,,,,,,,,,,,,,,,,,,,,,,,,,,
GOSH_A6,2023-11-10_09h54.46.496,two_step_task_legacy,2022.2.4,Win32,60.11060351,41,learning,0,resources/alien1_norm.png,0.7,resources/alien2_norm.png,0.3,TRUE,TRUE,3,0.299224656,red,m,0.2832,alien1,TRUE,3,0.712668173,158,0,0.7,x,0.813,0,276,276,276,1,0.7,0.3,0.6,0.4,FALSE,,,,,,,,,,,,,,,,,,,,,,,,,,,,,,,,,
GOSH_A6,2023-11-10_09h54.46.496,two_step_task_legacy,2022.2.4,Win32,60.11060351,41,learning,0,resources/alien1_norm.png,0.7,resources/alien2_norm.png,0.3,TRUE,TRUE,3,0.087233058,red,m,0.2436,alien1,TRUE,2,0.221282672,159,1,0.7,x,0.6949,0,277,277,277,1,0.7,0.3,0.6,0.4,FALSE,,,,,,,,,,,,,,,,,,,,,,,,,,,,,,,,,
GOSH_A6,2023-11-10_09h54.46.496,two_step_task_legacy,2022.2.4,Win32,60.11060351,41,learning,1,resources/alien3_norm.png,0.6,resources/alien4_norm.png,0.4,TRUE,TRUE,2,0.935664744,purple,m,0.2427,alien3,TRUE,2,0.381920661,160,1,0.6,x,1.0473,0,278,278,278,1,0.7,0.3,0.6,0.4,FALSE,,,,,,,,,,,,,,,,,,,,,,,,,,,,,,,,,
GOSH_A6,2023-11-10_09h54.46.496,two_step_task_legacy,2022.2.4,Win32,60.11060351,41,learning,0,resources/alien1_norm.png,0.7,resources/alien2_norm.png,0.3,TRUE,TRUE,3,0.291139694,red,m,0.3174,alien1,TRUE,2,0.542898134,161,1,0.7,x,0.4357,0,279,279,279,1,0.7,0.3,0.6,0.4,FALSE,,,,,,,,,,,,,,,,,,,,,,,,,,,,,,,,,
GOSH_A6,2023-11-10_09h54.46.496,two_step_task_legacy,2022.2.4,Win32,60.11060351,41,learning,0,resources/alien2_norm.png,0.3,resources/alien1_norm.png,0.7,TRUE,TRUE,3,0.265139879,red,m,0.3226,alien1,TRUE,2,0.194327589,162,1,0.7,m,0.574,0,280,280,280,1,0.7,0.3,0.6,0.4,TRUE,,,,,,,,,,,,,,,,,,,,,,,,,,,,,,,,,
GOSH_A6,2023-11-10_09h54.46.496,two_step_task_legacy,2022.2.4,Win32,60.11060351,41,learning,0,resources/alien1_norm.png,0.7,resources/alien2_norm.png,0.3,TRUE,TRUE,3,0.433817996,red,m,0.3008,alien1,TRUE,2,0.254725113,163,1,0.7,x,0.5952,0,281,281,281,1,0.7,0.3,0.6,0.4,FALSE,,,,,,,,,,,,,,,,,,,,,,,,,,,,,,,,,
GOSH_A6,2023-11-10_09h54.46.496,two_step_task_legacy,2022.2.4,Win32,60.11060351,41,learning,0,resources/alien2_norm.png,0.3,resources/alien1_norm.png,0.7,TRUE,TRUE,3,0.662627283,red,m,0.2611,alien1,TRUE,2,0.001277913,164,1,0.7,m,0.4673,0,282,282,282,1,0.7,0.3,0.6,0.4,TRUE,,,,,,,,,,,,,,,,,,,,,,,,,,,,,,,,,
GOSH_A6,2023-11-10_09h54.46.496,two_step_task_legacy,2022.2.4,Win32,60.11060351,41,learning,1,resources/alien4_norm.png,0.4,resources/alien3_norm.png,0.6,TRUE,TRUE,2,0.937798184,purple,m,0.2413,alien3,TRUE,2,0.138033131,165,1,0.6,m,1.0543,0,283,283,283,1,0.7,0.3,0.6,0.4,TRUE,,,,,,,,,,,,,,,,,,,,,,,,,,,,,,,,,
GOSH_A6,2023-11-10_09h54.46.496,two_step_task_legacy,2022.2.4,Win32,60.11060351,41,learning,0,resources/alien1_norm.png,0.7,resources/alien2_norm.png,0.3,TRUE,TRUE,3,0.420380917,red,m,0.2579,alien1,TRUE,3,0.932781297,165,0,0.7,x,0.5599,0,284,284,284,1,0.7,0.3,0.6,0.4,FALSE,,,,,,,,,,,,,,,,,,,,,,,,,,,,,,,,,
GOSH_A6,2023-11-10_09h54.46.496,two_step_task_legacy,2022.2.4,Win32,60.11060351,41,learning,0,resources/alien2_norm.png,0.3,resources/alien1_norm.png,0.7,TRUE,TRUE,3,0.356485589,red,m,0.2647,alien1,TRUE,3,0.72309888,165,0,0.7,m,0.4597,0,285,285,285,1,0.7,0.3,0.6,0.4,TRUE,,,,,,,,,,,,,,,,,,,,,,,,,,,,,,,,,
GOSH_A6,2023-11-10_09h54.46.496,two_step_task_legacy,2022.2.4,Win32,60.11060351,41,learning,0,resources/alien3_norm.png,0.6,resources/alien4_norm.png,0.4,TRUE,TRUE,2,0.568055564,purple,x,0.2459,alien3,TRUE,2,0.47481195,166,1,0.6,x,0.5814,0,286,286,286,1,0.7,0.3,0.6,0.4,FALSE,,,,,,,,,,,,,,,,,,,,,,,,,,,,,,,,,
GOSH_A6,2023-11-10_09h54.46.496,two_step_task_legacy,2022.2.4,Win32,60.11060351,41,learning,1,resources/alien1_norm.png,0.7,resources/alien2_norm.png,0.3,TRUE,TRUE,3,0.984150299,red,x,0.2449,alien1,TRUE,2,0.642931718,167,1,0.7,x,0.5827,0,287,287,287,1,0.7,0.3,0.6,0.4,FALSE,,,,,,,,,,,,,,,,,,,,,,,,,,,,,,,,,
GOSH_A6,2023-11-10_09h54.46.496,two_step_task_legacy,2022.2.4,Win32,60.11060351,41,learning,0,resources/alien4_norm.png,0.4,resources/alien3_norm.png,0.6,TRUE,TRUE,2,0.603013663,purple,x,0.2526,alien3,TRUE,2,0.190461368,168,1,0.6,m,0.8101,0,288,288,288,1,0.7,0.3,0.6,0.4,TRUE,,,,,,,,,,,,,,,,,,,,,,,,,,,,,,,,,
GOSH_A6,2023-11-10_09h54.46.496,two_step_task_legacy,2022.2.4,Win32,60.11060351,41,learning,0,resources/alien4_norm.png,0.4,resources/alien3_norm.png,0.6,TRUE,TRUE,2,0.308374511,purple,x,0.2664,alien3,TRUE,3,0.718971226,168,0,0.6,m,0.4025,0,289,289,289,1,0.7,0.3,0.6,0.4,TRUE,,,,,,,,,,,,,,,,,,,,,,,,,,,,,,,,,
