participant,date,expName,psychopyVersion,OS,frameRate,payoff_list,phase,rare_transition,select_sp,show_alien,rocket_trans,rand_sp,planet,key_resp_exp.keys,loop_exp.thisRepN,loop_exp.thisTrialN,loop_exp.thisN,loop_exp.thisIndex,loop_exp.ran,p1,p2,p3,p4,flip_sides,left_alien,left_probabilty,right_alien,right_probabilty,key_resp_exp.rt,chosen_alien,select_alien,transmoney,rand_money,totalgold,trialgain,probs,key_resp_exp_alien.keys,key_resp_exp_alien.rt,static_probability_left,static_probability_right,key_resp_probe.keys,key_resp_probe.rt,accuracy,probe_loop.thisRepN,probe_loop.thisTrialN,probe_loop.thisN,probe_loop.thisIndex,probe_loop.ran,probe_la,probe_ra,key_resp.keys,key_resp.rt,slider.response,slider.rt,post_loop.thisRepN,post_loop.thisTrialN,post_loop.thisN,post_loop.thisIndex,post_loop.ran,text_up,pos_text_up,text_down,pos_img_left_up,left_up_img,right_up_img,left_down_img_1,left_down_img_2,right_down_img_1,right_down_img_2,size,show_slider
GOSH_A8,2023-11-10_09h57.45.336,two_step_task_legacy,2022.2.4,Win32,59.34718101,,,,,,,,,,,,,,,,,,,,,,,,,,,,,,,,,,,,,,,,,,,,,,,,,,,,,,,,,,,,,,,,,,
GOSH_A8,2023-11-10_09h57.45.336,two_step_task_legacy,2022.2.4,Win32,59.34718101,,,,,,,,,,,,,,,,,,,,,,,,,,,,,,,,,,,,,,,,,,,,,,,,,,,,,,,,,,,,,,,,,,
GOSH_A8,2023-11-10_09h57.45.336,two_step_task_legacy,2022.2.4,Win32,59.34718101,,,,,,,,,,,,,,,,,,,,,,,,,,,,,,,,,,,,,,,,,,,,,,,,,,,,,,,,,,,,,,,,,,
GOSH_A8,2023-11-10_09h57.45.336,two_step_task_legacy,2022.2.4,Win32,59.34718101,,,,,,,,,,,,,,,,,,,,,,,,,,,,,,,,,,,,,,,,,,,,,,,,,,,,,,,,,,,,,,,,,,
GOSH_A8,2023-11-10_09h57.45.336,two_step_task_legacy,2022.2.4,Win32,59.34718101,,,,,,,,,,,,,,,,,,,,,,,,,,,,,,,,,,,,,,,,,,,,,,,,,,,,,,,,,,,,,,,,,,
GOSH_A8,2023-11-10_09h57.45.336,two_step_task_legacy,2022.2.4,Win32,59.34718101,,,,,,,,,,,,,,,,,,,,,,,,,,,,,,,,,,,,,,,,,,,,,,,,,,,,,,,,,,,,,,,,,,
GOSH_A8,2023-11-10_09h57.45.336,two_step_task_legacy,2022.2.4,Win32,59.34718101,,,,,,,,,,,,,,,,,,,,,,,,,,,,,,,,,,,,,,,,,,,,,,,,,,,,,,,,,,,,,,,,,,
GOSH_A8,2023-11-10_09h57.45.336,two_step_task_legacy,2022.2.4,Win32,59.34718101,,,,,,,,,,,,,,,,,,,,,,,,,,,,,,,,,,,,,,,,,,,,,,,,,,,,,,,,,,,,,,,,,,
GOSH_A8,2023-11-10_09h57.45.336,two_step_task_legacy,2022.2.4,Win32,59.34718101,,,,,,,,,,,,,,,,,,,,,,,,,,,,,,,,,,,,,,,,,,,,,,,,,,,,,,,,,,,,,,,,,,
GOSH_A8,2023-11-10_09h57.45.336,two_step_task_legacy,2022.2.4,Win32,59.34718101,,,,,,,,,,,,,,,,,,,,,,,,,,,,,,,,,,,,,,,,,,,,,,,,,,,,,,,,,,,,,,,,,,
GOSH_A8,2023-11-10_09h57.45.336,two_step_task_legacy,2022.2.4,Win32,59.34718101,,,,,,,,,,,,,,,,,,,,,,,,,,,,,,,,,,,,,,,,,,,,,,,,,,,,,,,,,,,,,,,,,,
GOSH_A8,2023-11-10_09h57.45.336,two_step_task_legacy,2022.2.4,Win32,59.34718101,23,learning,0,FALSE,FALSE,2,0.189133595,yellow,,0,0,0,0,1,0.601195094,0.412920416,0.684167385,0.574881385,FALSE,,,,,,,,,,,,,,,,,,,,,,,,,,,,,,,,,,,,,,,,,,,,,,,
GOSH_A8,2023-11-10_09h57.45.336,two_step_task_legacy,2022.2.4,Win32,59.34718101,23,learning,0,TRUE,TRUE,3,0.562613201,red,m,0,1,1,1,1,0.625745146,0.384635186,0.686024818,0.598570502,FALSE,resources/alien1_norm.png,0.625745146,resources/alien2_norm.png,0.384635186,0.373,alien2,TRUE,3,0.737393989,0,0,0.384635186,m,0.8659,,,,,,,,,,,,,,,,,,,,,,,,,,,,,,,,,
GOSH_A8,2023-11-10_09h57.45.336,two_step_task_legacy,2022.2.4,Win32,59.34718101,23,learning,0,TRUE,TRUE,3,0.415592227,red,m,0,2,2,2,1,0.607315968,0.369840214,0.644881976,0.638671366,TRUE,resources/alien2_norm.png,0.369840214,resources/alien1_norm.png,0.607315968,0.6451,alien1,TRUE,2,0.077679607,1,1,0.607315968,m,0.8798,,,,,,,,,,,,,,,,,,,,,,,,,,,,,,,,,
GOSH_A8,2023-11-10_09h57.45.336,two_step_task_legacy,2022.2.4,Win32,59.34718101,23,learning,1,TRUE,TRUE,2,0.700420593,purple,m,0,3,3,3,1,0.553970902,0.370949282,0.634096222,0.581962699,TRUE,resources/alien4_norm.png,0.581962699,resources/alien3_norm.png,0.634096222,0.3817,alien4,TRUE,2,0.026898581,2,1,0.581962699,x,0.9905,,,,,,,,,,,,,,,,,,,,,,,,,,,,,,,,,
GOSH_A8,2023-11-10_09h57.45.336,two_step_task_legacy,2022.2.4,Win32,59.34718101,23,learning,1,TRUE,TRUE,2,0.915560529,purple,m,0,4,4,4,1,0.531032286,0.403833123,0.641581245,0.574748429,FALSE,resources/alien3_norm.png,0.641581245,resources/alien4_norm.png,0.574748429,0.3897,alien4,TRUE,2,0.078510758,3,1,0.574748429,m,0.784,,,,,,,,,,,,,,,,,,,,,,,,,,,,,,,,,
GOSH_A8,2023-11-10_09h57.45.336,two_step_task_legacy,2022.2.4,Win32,59.34718101,23,learning,0,TRUE,TRUE,3,0.105217563,red,m,0,5,5,5,1,0.567657882,0.413108418,0.653289635,0.5733101,FALSE,resources/alien1_norm.png,0.567657882,resources/alien2_norm.png,0.413108418,0.3832,alien1,TRUE,2,0.421027827,4,1,0.567657882,x,0.9113,,,,,,,,,,,,,,,,,,,,,,,,,,,,,,,,,
GOSH_A8,2023-11-10_09h57.45.336,two_step_task_legacy,2022.2.4,Win32,59.34718101,23,learning,0,TRUE,TRUE,3,0.283329514,red,m,0,6,6,6,1,0.583224272,0.425080565,0.710266348,0.526958851,FALSE,resources/alien1_norm.png,0.583224272,resources/alien2_norm.png,0.425080565,0.2386,alien1,TRUE,2,0.470975442,5,1,0.583224272,x,0.6207,,,,,,,,,,,,,,,,,,,,,,,,,,,,,,,,,
GOSH_A8,2023-11-10_09h57.45.336,two_step_task_legacy,2022.2.4,Win32,59.34718101,23,learning,0,TRUE,TRUE,3,0.192005039,red,m,0,7,7,7,1,0.611992163,0.442857993,0.713974974,0.480861246,FALSE,resources/alien1_norm.png,0.611992163,resources/alien2_norm.png,0.442857993,0.2914,alien1,TRUE,2,0.446524648,6,1,0.611992163,x,0.5498,,,,,,,,,,,,,,,,,,,,,,,,,,,,,,,,,
GOSH_A8,2023-11-10_09h57.45.336,two_step_task_legacy,2022.2.4,Win32,59.34718101,23,learning,0,TRUE,TRUE,3,0.435416361,red,m,0,8,8,8,1,0.612740558,0.431833253,0.7109314,0.461218259,TRUE,resources/alien2_norm.png,0.431833253,resources/alien1_norm.png,0.612740558,0.2385,alien1,TRUE,3,0.649946658,6,0,0.612740558,m,0.4877,,,,,,,,,,,,,,,,,,,,,,,,,,,,,,,,,
GOSH_A8,2023-11-10_09h57.45.336,two_step_task_legacy,2022.2.4,Win32,59.34718101,23,learning,1,TRUE,TRUE,2,0.906779782,purple,m,0,9,9,9,1,0.608500544,0.441677248,0.702346871,0.482120856,FALSE,resources/alien3_norm.png,0.702346871,resources/alien4_norm.png,0.482120856,0.256,alien4,TRUE,2,0.033169183,7,1,0.482120856,m,0.7168,,,,,,,,,,,,,,,,,,,,,,,,,,,,,,,,,
GOSH_A8,2023-11-10_09h57.45.336,two_step_task_legacy,2022.2.4,Win32,59.34718101,23,learning,0,TRUE,TRUE,3,0.243827446,red,m,0,10,10,10,1,0.576141425,0.482625454,0.67633549,0.532346574,TRUE,resources/alien2_norm.png,0.482625454,resources/alien1_norm.png,0.576141425,0.2672,alien1,TRUE,3,0.822014796,7,0,0.576141425,m,0.5365,,,,,,,,,,,,,,,,,,,,,,,,,,,,,,,,,
GOSH_A8,2023-11-10_09h57.45.336,two_step_task_legacy,2022.2.4,Win32,59.34718101,23,learning,0,TRUE,TRUE,3,0.157752844,red,m,0,11,11,11,1,0.568074544,0.493435168,0.664063745,0.561189193,FALSE,resources/alien1_norm.png,0.568074544,resources/alien2_norm.png,0.493435168,0.2714,alien1,TRUE,2,0.014423725,8,1,0.568074544,x,0.5687,,,,,,,,,,,,,,,,,,,,,,,,,,,,,,,,,
GOSH_A8,2023-11-10_09h57.45.336,two_step_task_legacy,2022.2.4,Win32,59.34718101,23,learning,0,TRUE,TRUE,3,0.37048095,red,m,0,12,12,12,1,0.580926918,0.510599306,0.672411387,0.548431613,TRUE,resources/alien2_norm.png,0.510599306,resources/alien1_norm.png,0.580926918,0.3093,alien1,TRUE,3,0.741418466,8,0,0.580926918,m,0.5517,,,,,,,,,,,,,,,,,,,,,,,,,,,,,,,,,
GOSH_A8,2023-11-10_09h57.45.336,two_step_task_legacy,2022.2.4,Win32,59.34718101,23,learning,0,TRUE,TRUE,3,0.624514638,red,m,0,13,13,13,1,0.600410731,0.440226577,0.663587653,0.549136269,FALSE,resources/alien1_norm.png,0.600410731,resources/alien2_norm.png,0.440226577,0.2937,alien1,TRUE,2,0.124009519,9,1,0.600410731,x,0.601,,,,,,,,,,,,,,,,,,,,,,,,,,,,,,,,,
GOSH_A8,2023-11-10_09h57.45.336,two_step_task_legacy,2022.2.4,Win32,59.34718101,23,learning,1,TRUE,TRUE,2,0.883355067,purple,m,0,14,14,14,1,0.611788063,0.418298082,0.666002255,0.524244528,TRUE,resources/alien4_norm.png,0.524244528,resources/alien3_norm.png,0.666002255,0.3173,alien4,TRUE,2,0.12405418,10,1,0.524244528,x,0.4882,,,,,,,,,,,,,,,,,,,,,,,,,,,,,,,,,
GOSH_A8,2023-11-10_09h57.45.336,two_step_task_legacy,2022.2.4,Win32,59.34718101,23,learning,0,TRUE,TRUE,3,0.134151682,red,m,0,15,15,15,1,0.598923528,0.389234347,0.677601938,0.531921129,FALSE,resources/alien1_norm.png,0.598923528,resources/alien2_norm.png,0.389234347,0.2604,alien1,TRUE,2,0.550958477,11,1,0.598923528,x,0.5157,,,,,,,,,,,,,,,,,,,,,,,,,,,,,,,,,
GOSH_A8,2023-11-10_09h57.45.336,two_step_task_legacy,2022.2.4,Win32,59.34718101,23,learning,0,TRUE,TRUE,2,0.477704863,purple,x,0,16,16,16,1,0.573752737,0.442467063,0.658528817,0.532800124,TRUE,resources/alien4_norm.png,0.532800124,resources/alien3_norm.png,0.658528817,0.5088,alien4,TRUE,3,0.642561594,11,0,0.532800124,x,0.4547,,,,,,,,,,,,,,,,,,,,,,,,,,,,,,,,,
GOSH_A8,2023-11-10_09h57.45.336,two_step_task_legacy,2022.2.4,Win32,59.34718101,23,learning,0,TRUE,TRUE,2,0.07415483,purple,x,0,17,17,17,1,0.566603312,0.428427973,0.631175471,0.552412586,FALSE,resources/alien3_norm.png,0.631175471,resources/alien4_norm.png,0.552412586,0.3075,alien4,TRUE,2,0.45721242,12,1,0.552412586,m,0.5741,,,,,,,,,,,,,,,,,,,,,,,,,,,,,,,,,
GOSH_A8,2023-11-10_09h57.45.336,two_step_task_legacy,2022.2.4,Win32,59.34718101,23,learning,0,TRUE,TRUE,2,0.204175034,purple,x,0,18,18,18,1,0.582114013,0.425646271,0.604740096,0.565590497,FALSE,resources/alien3_norm.png,0.604740096,resources/alien4_norm.png,0.565590497,0.3728,alien4,TRUE,2,0.504520744,13,1,0.565590497,m,0.5302,,,,,,,,,,,,,,,,,,,,,,,,,,,,,,,,,
GOSH_A8,2023-11-10_09h57.45.336,two_step_task_legacy,2022.2.4,Win32,59.34718101,23,learning,0,TRUE,TRUE,2,0.68640436,purple,x,0,19,19,19,1,0.561351389,0.373328893,0.572334771,0.567031065,FALSE,resources/alien3_norm.png,0.572334771,resources/alien4_norm.png,0.567031065,0.377,alien4,TRUE,2,0.463630956,14,1,0.567031065,m,0.399,,,,,,,,,,,,,,,,,,,,,,,,,,,,,,,,,
GOSH_A8,2023-11-10_09h57.45.336,two_step_task_legacy,2022.2.4,Win32,59.34718101,23,learning,1,TRUE,TRUE,3,0.907563471,red,x,0,20,20,20,1,0.600913787,0.418292814,0.559110428,0.54814434,FALSE,resources/alien1_norm.png,0.600913787,resources/alien2_norm.png,0.418292814,0.2708,alien1,TRUE,2,0.413994904,15,1,0.600913787,x,0.7282,,,,,,,,,,,,,,,,,,,,,,,,,,,,,,,,,
GOSH_A8,2023-11-10_09h57.45.336,two_step_task_legacy,2022.2.4,Win32,59.34718101,23,learning,0,TRUE,TRUE,2,0.225576844,purple,x,0,21,21,21,1,0.583272345,0.422500338,0.568809314,0.566532625,FALSE,resources/alien3_norm.png,0.568809314,resources/alien4_norm.png,0.566532625,0.2456,alien4,TRUE,2,0.122611202,16,1,0.566532625,m,0.522,,,,,,,,,,,,,,,,,,,,,,,,,,,,,,,,,
GOSH_A8,2023-11-10_09h57.45.336,two_step_task_legacy,2022.2.4,Win32,59.34718101,23,learning,1,TRUE,TRUE,3,0.706654021,red,x,0,22,22,22,1,0.609961034,0.394003844,0.55652811,0.561719482,TRUE,resources/alien2_norm.png,0.394003844,resources/alien1_norm.png,0.609961034,0.1457,alien1,TRUE,2,0.572581318,17,1,0.609961034,m,0.5243,,,,,,,,,,,,,,,,,,,,,,,,,,,,,,,,,
GOSH_A8,2023-11-10_09h57.45.336,two_step_task_legacy,2022.2.4,Win32,59.34718101,23,learning,0,TRUE,TRUE,2,0.651366294,purple,x,0,23,23,23,1,0.590272679,0.394651748,0.555724238,0.544931665,TRUE,resources/alien4_norm.png,0.544931665,resources/alien3_norm.png,0.555724238,0.337,alien4,TRUE,3,0.759063001,17,0,0.544931665,x,0.5567,,,,,,,,,,,,,,,,,,,,,,,,,,,,,,,,,
GOSH_A8,2023-11-10_09h57.45.336,two_step_task_legacy,2022.2.4,Win32,59.34718101,23,learning,0,TRUE,TRUE,2,0.654553981,purple,x,0,24,24,24,1,0.605617399,0.431176562,0.576639227,0.55069953,TRUE,resources/alien4_norm.png,0.55069953,resources/alien3_norm.png,0.576639227,0.5121,alien4,TRUE,2,0.029955552,18,1,0.55069953,x,0.4907,,,,,,,,,,,,,,,,,,,,,,,,,,,,,,,,,
GOSH_A8,2023-11-10_09h57.45.336,two_step_task_legacy,2022.2.4,Win32,59.34718101,23,learning,1,TRUE,TRUE,3,0.769314455,red,x,0,25,25,25,1,0.613091185,0.420786543,0.557257773,0.534624757,TRUE,resources/alien2_norm.png,0.420786543,resources/alien1_norm.png,0.613091185,0.3838,alien1,TRUE,2,0.471756426,19,1,0.613091185,m,0.4859,,,,,,,,,,,,,,,,,,,,,,,,,,,,,,,,,
GOSH_A8,2023-11-10_09h57.45.336,two_step_task_legacy,2022.2.4,Win32,59.34718101,23,learning,1,TRUE,TRUE,3,0.955142174,red,x,0,26,26,26,1,0.595872609,0.450532133,0.576094467,0.545850614,TRUE,resources/alien2_norm.png,0.450532133,resources/alien1_norm.png,0.595872609,0.3517,alien1,TRUE,3,0.776297366,19,0,0.595872609,m,0.5166,,,,,,,,,,,,,,,,,,,,,,,,,,,,,,,,,
GOSH_A8,2023-11-10_09h57.45.336,two_step_task_legacy,2022.2.4,Win32,59.34718101,23,learning,0,TRUE,TRUE,2,0.124666116,purple,x,0,27,27,27,1,0.643406653,0.477668773,0.592199407,0.511001288,FALSE,resources/alien3_norm.png,0.592199407,resources/alien4_norm.png,0.511001288,0.2607,alien4,TRUE,2,0.150776148,20,1,0.511001288,m,0.4039,,,,,,,,,,,,,,,,,,,,,,,,,,,,,,,,,
GOSH_A8,2023-11-10_09h57.45.336,two_step_task_legacy,2022.2.4,Win32,59.34718101,23,learning,0,TRUE,TRUE,2,0.487471136,purple,x,0,28,28,28,1,0.627060866,0.482589761,0.634639671,0.503306501,FALSE,resources/alien3_norm.png,0.634639671,resources/alien4_norm.png,0.503306501,0.2542,alien4,TRUE,3,0.692779531,20,0,0.503306501,m,0.4535,,,,,,,,,,,,,,,,,,,,,,,,,,,,,,,,,
GOSH_A8,2023-11-10_09h57.45.336,two_step_task_legacy,2022.2.4,Win32,59.34718101,23,learning,1,TRUE,TRUE,3,0.96951964,red,x,0,29,29,29,1,0.659503493,0.473630358,0.636367601,0.500905699,FALSE,resources/alien1_norm.png,0.659503493,resources/alien2_norm.png,0.473630358,0.2912,alien1,TRUE,2,0.150395445,21,1,0.659503493,x,0.3855,,,,,,,,,,,,,,,,,,,,,,,,,,,,,,,,,
GOSH_A8,2023-11-10_09h57.45.336,two_step_task_legacy,2022.2.4,Win32,59.34718101,23,learning,1,TRUE,TRUE,3,0.743374274,red,x,0,30,30,30,1,0.633289649,0.501315139,0.637914928,0.501224844,FALSE,resources/alien1_norm.png,0.633289649,resources/alien2_norm.png,0.501315139,0.2736,alien1,TRUE,2,0.327942228,22,1,0.633289649,x,0.4906,,,,,,,,,,,,,,,,,,,,,,,,,,,,,,,,,
GOSH_A8,2023-11-10_09h57.45.336,two_step_task_legacy,2022.2.4,Win32,59.34718101,23,learning,1,TRUE,TRUE,3,0.984424838,red,x,0,31,31,31,1,0.601309191,0.486335384,0.634843763,0.49511204,TRUE,resources/alien2_norm.png,0.486335384,resources/alien1_norm.png,0.601309191,0.2786,alien1,TRUE,3,0.852749641,22,0,0.601309191,m,0.4137,,,,,,,,,,,,,,,,,,,,,,,,,,,,,,,,,
GOSH_A8,2023-11-10_09h57.45.336,two_step_task_legacy,2022.2.4,Win32,59.34718101,23,learning,0,TRUE,TRUE,2,0.242358395,purple,x,0,32,32,32,1,0.601010443,0.467762774,0.625739977,0.492316248,TRUE,resources/alien4_norm.png,0.492316248,resources/alien3_norm.png,0.625739977,0.2437,alien4,TRUE,3,0.912881682,22,0,0.492316248,x,0.4922,,,,,,,,,,,,,,,,,,,,,,,,,,,,,,,,,
GOSH_A8,2023-11-10_09h57.45.336,two_step_task_legacy,2022.2.4,Win32,59.34718101,23,learning,0,TRUE,TRUE,2,0.211396203,purple,x,0,33,33,33,1,0.622204761,0.465440023,0.615828505,0.545653013,FALSE,resources/alien3_norm.png,0.615828505,resources/alien4_norm.png,0.545653013,0.3056,alien4,TRUE,2,0.23817216,23,1,0.545653013,m,0.4239,,,,,,,,,,,,,,,,,,,,,,,,,,,,,,,,,
GOSH_A8,2023-11-10_09h57.45.336,two_step_task_legacy,2022.2.4,Win32,59.34718101,23,learning,0,TRUE,TRUE,2,0.453082618,purple,x,0,34,34,34,1,0.627316779,0.493981228,0.59000377,0.495749277,TRUE,resources/alien4_norm.png,0.495749277,resources/alien3_norm.png,0.59000377,0.2946,alien4,TRUE,2,0.484718585,24,1,0.495749277,x,0.5435,,,,,,,,,,,,,,,,,,,,,,,,,,,,,,,,,
GOSH_A8,2023-11-10_09h57.45.336,two_step_task_legacy,2022.2.4,Win32,59.34718101,23,learning,0,TRUE,TRUE,2,0.548181357,purple,x,0,35,35,35,1,0.598288248,0.477218043,0.553937559,0.524611694,TRUE,resources/alien4_norm.png,0.524611694,resources/alien3_norm.png,0.553937559,0.3448,alien4,TRUE,3,0.705580624,24,0,0.524611694,x,0.5416,,,,,,,,,,,,,,,,,,,,,,,,,,,,,,,,,
GOSH_A8,2023-11-10_09h57.45.336,two_step_task_legacy,2022.2.4,Win32,59.34718101,23,learning,1,TRUE,TRUE,3,0.819052566,red,x,0,36,36,36,1,0.614262045,0.493000476,0.56908871,0.543066073,FALSE,resources/alien1_norm.png,0.614262045,resources/alien2_norm.png,0.493000476,0.3209,alien1,TRUE,2,0.517641769,25,1,0.614262045,x,0.5092,,,,,,,,,,,,,,,,,,,,,,,,,,,,,,,,,
GOSH_A8,2023-11-10_09h57.45.336,two_step_task_legacy,2022.2.4,Win32,59.34718101,23,learning,0,TRUE,TRUE,2,0.176496085,purple,x,0,37,37,37,1,0.604854621,0.477881014,0.558161717,0.50431812,TRUE,resources/alien4_norm.png,0.50431812,resources/alien3_norm.png,0.558161717,0.3998,alien4,TRUE,2,0.311976063,26,1,0.50431812,x,0.4214,,,,,,,,,,,,,,,,,,,,,,,,,,,,,,,,,
GOSH_A8,2023-11-10_09h57.45.336,two_step_task_legacy,2022.2.4,Win32,59.34718101,23,learning,0,TRUE,TRUE,2,0.223764105,purple,x,0,38,38,38,1,0.588574075,0.534531278,0.530772143,0.52797049,TRUE,resources/alien4_norm.png,0.52797049,resources/alien3_norm.png,0.530772143,0.2881,alien4,TRUE,2,0.295444517,27,1,0.52797049,x,0.4869,,,,,,,,,,,,,,,,,,,,,,,,,,,,,,,,,
GOSH_A8,2023-11-10_09h57.45.336,two_step_task_legacy,2022.2.4,Win32,59.34718101,23,learning,0,TRUE,TRUE,2,0.634526469,purple,x,0,39,39,39,1,0.595909038,0.531132777,0.540735318,0.557222525,FALSE,resources/alien3_norm.png,0.540735318,resources/alien4_norm.png,0.557222525,0.319,alien4,TRUE,2,0.154237009,28,1,0.557222525,m,0.4948,,,,,,,,,,,,,,,,,,,,,,,,,,,,,,,,,
GOSH_A8,2023-11-10_09h57.45.336,two_step_task_legacy,2022.2.4,Win32,59.34718101,23,learning,1,TRUE,TRUE,3,0.835791149,red,x,0,40,40,40,1,0.574771467,0.540223528,0.494666279,0.583638711,FALSE,resources/alien1_norm.png,0.574771467,resources/alien2_norm.png,0.540223528,0.2625,alien1,TRUE,2,0.557048975,29,1,0.574771467,x,0.4395,,,,,,,,,,,,,,,,,,,,,,,,,,,,,,,,,
GOSH_A8,2023-11-10_09h57.45.336,two_step_task_legacy,2022.2.4,Win32,59.34718101,23,learning,0,TRUE,TRUE,2,0.279995336,purple,x,0,41,41,41,1,0.584272001,0.559165838,0.50627781,0.5945859,FALSE,resources/alien3_norm.png,0.50627781,resources/alien4_norm.png,0.5945859,0.2666,alien4,TRUE,2,0.31631918,30,1,0.5945859,m,0.4845,,,,,,,,,,,,,,,,,,,,,,,,,,,,,,,,,
GOSH_A8,2023-11-10_09h57.45.336,two_step_task_legacy,2022.2.4,Win32,59.34718101,23,learning,0,TRUE,TRUE,2,0.01890994,purple,x,0,42,42,42,1,0.630034319,0.617175123,0.516590823,0.640132819,FALSE,resources/alien3_norm.png,0.516590823,resources/alien4_norm.png,0.640132819,0.2484,alien4,TRUE,3,0.772707292,30,0,0.640132819,m,0.4741,,,,,,,,,,,,,,,,,,,,,,,,,,,,,,,,,
GOSH_A8,2023-11-10_09h57.45.336,two_step_task_legacy,2022.2.4,Win32,59.34718101,23,learning,1,TRUE,TRUE,3,0.812574752,red,x,0,43,43,43,1,0.619075687,0.616003092,0.487932716,0.607580451,TRUE,resources/alien2_norm.png,0.616003092,resources/alien1_norm.png,0.619075687,0.2499,alien1,TRUE,3,0.692818003,30,0,0.619075687,m,0.5007,,,,,,,,,,,,,,,,,,,,,,,,,,,,,,,,,
GOSH_A8,2023-11-10_09h57.45.336,two_step_task_legacy,2022.2.4,Win32,59.34718101,23,learning,0,TRUE,TRUE,2,0.172086633,purple,x,0,44,44,44,1,0.605356515,0.582526972,0.519583753,0.572653625,FALSE,resources/alien3_norm.png,0.519583753,resources/alien4_norm.png,0.572653625,0.7048,alien4,TRUE,2,0.22287293,31,1,0.572653625,m,0.4381,,,,,,,,,,,,,,,,,,,,,,,,,,,,,,,,,
GOSH_A8,2023-11-10_09h57.45.336,two_step_task_legacy,2022.2.4,Win32,59.34718101,23,learning,0,TRUE,TRUE,2,0.622365778,purple,x,0,45,45,45,1,0.557081221,0.577200294,0.511061951,0.574858948,FALSE,resources/alien3_norm.png,0.511061951,resources/alien4_norm.png,0.574858948,0.5379,alien4,TRUE,2,0.311784734,32,1,0.574858948,m,0.5269,,,,,,,,,,,,,,,,,,,,,,,,,,,,,,,,,
GOSH_A8,2023-11-10_09h57.45.336,two_step_task_legacy,2022.2.4,Win32,59.34718101,23,learning,0,TRUE,TRUE,2,0.670848189,purple,x,0,46,46,46,1,0.555291304,0.598845262,0.532871987,0.595061916,FALSE,resources/alien3_norm.png,0.532871987,resources/alien4_norm.png,0.595061916,0.5675,alien4,TRUE,2,0.41339857,33,1,0.595061916,m,0.3913,,,,,,,,,,,,,,,,,,,,,,,,,,,,,,,,,
GOSH_A8,2023-11-10_09h57.45.336,two_step_task_legacy,2022.2.4,Win32,59.34718101,23,learning,0,TRUE,TRUE,2,0.215594168,purple,x,0,47,47,47,1,0.578601924,0.598532069,0.529726075,0.585828111,FALSE,resources/alien3_norm.png,0.529726075,resources/alien4_norm.png,0.585828111,0.3163,alien4,TRUE,2,0.080728089,34,1,0.585828111,m,0.4055,,,,,,,,,,,,,,,,,,,,,,,,,,,,,,,,,
GOSH_A8,2023-11-10_09h57.45.336,two_step_task_legacy,2022.2.4,Win32,59.34718101,23,learning,0,TRUE,TRUE,2,0.198844441,purple,x,0,48,48,48,1,0.542249819,0.586538679,0.558730333,0.573653694,FALSE,resources/alien3_norm.png,0.558730333,resources/alien4_norm.png,0.573653694,0.2733,alien4,TRUE,2,0.163043983,35,1,0.573653694,m,0.3172,,,,,,,,,,,,,,,,,,,,,,,,,,,,,,,,,
GOSH_A8,2023-11-10_09h57.45.336,two_step_task_legacy,2022.2.4,Win32,59.34718101,23,learning,0,TRUE,TRUE,2,0.069573646,purple,x,0,49,49,49,1,0.519538965,0.584343304,0.622833908,0.600621292,FALSE,resources/alien3_norm.png,0.622833908,resources/alien4_norm.png,0.600621292,0.2279,alien4,TRUE,3,0.621908504,35,0,0.600621292,m,0.351,,,,,,,,,,,,,,,,,,,,,,,,,,,,,,,,,
GOSH_A8,2023-11-10_09h57.45.336,two_step_task_legacy,2022.2.4,Win32,59.34718101,23,learning,0,TRUE,TRUE,2,0.530412082,purple,x,0,50,50,50,1,0.554572557,0.581709677,0.620348506,0.607356483,FALSE,resources/alien3_norm.png,0.620348506,resources/alien4_norm.png,0.607356483,0.2288,alien4,TRUE,2,0.16383078,36,1,0.607356483,m,0.3335,,,,,,,,,,,,,,,,,,,,,,,,,,,,,,,,,
GOSH_A8,2023-11-10_09h57.45.336,two_step_task_legacy,2022.2.4,Win32,59.34718101,23,learning,0,TRUE,TRUE,2,0.480874876,purple,x,0,51,51,51,1,0.547889004,0.612718726,0.6031703,0.607009894,FALSE,resources/alien3_norm.png,0.6031703,resources/alien4_norm.png,0.607009894,0.2208,alien4,TRUE,2,0.477386255,37,1,0.607009894,m,0.3527,,,,,,,,,,,,,,,,,,,,,,,,,,,,,,,,,
GOSH_A8,2023-11-10_09h57.45.336,two_step_task_legacy,2022.2.4,Win32,59.34718101,23,learning,0,TRUE,TRUE,2,0.228623776,purple,x,0,52,52,52,1,0.544060582,0.595407189,0.557769273,0.588840226,TRUE,resources/alien4_norm.png,0.588840226,resources/alien3_norm.png,0.557769273,0.2507,alien3,TRUE,3,0.757665337,37,0,0.557769273,m,0.2886,,,,,,,,,,,,,,,,,,,,,,,,,,,,,,,,,
GOSH_A8,2023-11-10_09h57.45.336,two_step_task_legacy,2022.2.4,Win32,59.34718101,23,learning,0,TRUE,TRUE,2,0.661501088,purple,x,0,53,53,53,1,0.545266218,0.593072845,0.542082465,0.626166645,TRUE,resources/alien4_norm.png,0.626166645,resources/alien3_norm.png,0.542082465,0.2882,alien4,TRUE,2,0.309158105,38,1,0.626166645,x,0.5083,,,,,,,,,,,,,,,,,,,,,,,,,,,,,,,,,
GOSH_A8,2023-11-10_09h57.45.336,two_step_task_legacy,2022.2.4,Win32,59.34718101,23,learning,1,TRUE,TRUE,3,0.984781278,red,x,0,54,54,54,1,0.533636761,0.617187035,0.542691053,0.641639284,FALSE,resources/alien1_norm.png,0.533636761,resources/alien2_norm.png,0.617187035,0.2916,alien1,TRUE,2,0.083722788,39,1,0.533636761,x,0.6282,,,,,,,,,,,,,,,,,,,,,,,,,,,,,,,,,
GOSH_A8,2023-11-10_09h57.45.336,two_step_task_legacy,2022.2.4,Win32,59.34718101,23,learning,1,TRUE,TRUE,3,0.916697862,red,x,0,55,55,55,1,0.53071874,0.642883939,0.540688793,0.613630346,FALSE,resources/alien1_norm.png,0.53071874,resources/alien2_norm.png,0.642883939,0.2357,alien1,TRUE,2,0.415207336,40,1,0.53071874,x,0.558,,,,,,,,,,,,,,,,,,,,,,,,,,,,,,,,,
GOSH_A8,2023-11-10_09h57.45.336,two_step_task_legacy,2022.2.4,Win32,59.34718101,23,learning,1,TRUE,TRUE,3,0.828203956,red,x,0,56,56,56,1,0.508540082,0.642374716,0.506133513,0.604506511,TRUE,resources/alien2_norm.png,0.642374716,resources/alien1_norm.png,0.508540082,0.2108,alien1,TRUE,2,0.042484129,41,1,0.508540082,m,0.5069,,,,,,,,,,,,,,,,,,,,,,,,,,,,,,,,,
GOSH_A8,2023-11-10_09h57.45.336,two_step_task_legacy,2022.2.4,Win32,59.34718101,23,learning,0,TRUE,TRUE,2,0.285858225,purple,x,0,57,57,57,1,0.519337081,0.646260215,0.531679577,0.600516429,TRUE,resources/alien4_norm.png,0.600516429,resources/alien3_norm.png,0.531679577,0.1998,alien4,TRUE,3,0.790192072,41,0,0.600516429,x,0.5497,,,,,,,,,,,,,,,,,,,,,,,,,,,,,,,,,
GOSH_A8,2023-11-10_09h57.45.336,two_step_task_legacy,2022.2.4,Win32,59.34718101,23,learning,0,TRUE,TRUE,2,0.212742651,purple,x,0,58,58,58,1,0.515119314,0.644987866,0.525737079,0.596579648,FALSE,resources/alien3_norm.png,0.525737079,resources/alien4_norm.png,0.596579648,0.5909,alien4,TRUE,2,0.445270008,42,1,0.596579648,m,0.4606,,,,,,,,,,,,,,,,,,,,,,,,,,,,,,,,,
GOSH_A8,2023-11-10_09h57.45.336,two_step_task_legacy,2022.2.4,Win32,59.34718101,23,learning,0,TRUE,TRUE,2,0.24673253,purple,x,0,59,59,59,1,0.482207563,0.621644772,0.535111942,0.600256718,TRUE,resources/alien4_norm.png,0.600256718,resources/alien3_norm.png,0.535111942,0.2622,alien4,TRUE,2,0.24655264,43,1,0.600256718,x,0.4342,,,,,,,,,,,,,,,,,,,,,,,,,,,,,,,,,
GOSH_A8,2023-11-10_09h57.45.336,two_step_task_legacy,2022.2.4,Win32,59.34718101,23,learning,0,TRUE,TRUE,2,0.412469317,purple,x,0,60,60,60,1,0.450055305,0.66669687,0.514338736,0.607153047,FALSE,resources/alien3_norm.png,0.514338736,resources/alien4_norm.png,0.607153047,0.2563,alien4,TRUE,2,0.112346684,44,1,0.607153047,m,0.5174,,,,,,,,,,,,,,,,,,,,,,,,,,,,,,,,,
GOSH_A8,2023-11-10_09h57.45.336,two_step_task_legacy,2022.2.4,Win32,59.34718101,23,learning,1,TRUE,TRUE,3,0.830104426,red,x,0,61,61,61,1,0.419368289,0.658101899,0.471642866,0.583823796,FALSE,resources/alien1_norm.png,0.419368289,resources/alien2_norm.png,0.658101899,0.1834,alien1,TRUE,3,0.898595831,44,0,0.419368289,x,0.5014,,,,,,,,,,,,,,,,,,,,,,,,,,,,,,,,,
GOSH_A8,2023-11-10_09h57.45.336,two_step_task_legacy,2022.2.4,Win32,59.34718101,23,learning,0,TRUE,TRUE,2,0.46356562,purple,x,0,62,62,62,1,0.476081837,0.679582459,0.495383864,0.577391808,TRUE,resources/alien4_norm.png,0.577391808,resources/alien3_norm.png,0.495383864,0.2439,alien4,TRUE,3,0.877417855,44,0,0.577391808,x,0.6029,,,,,,,,,,,,,,,,,,,,,,,,,,,,,,,,,
GOSH_A8,2023-11-10_09h57.45.336,two_step_task_legacy,2022.2.4,Win32,59.34718101,23,learning,0,TRUE,TRUE,2,0.090160549,purple,x,0,63,63,63,1,0.46564135,0.656019472,0.492482455,0.584382346,TRUE,resources/alien4_norm.png,0.584382346,resources/alien3_norm.png,0.492482455,0.3093,alien4,TRUE,3,0.615253259,44,0,0.584382346,x,0.4509,,,,,,,,,,,,,,,,,,,,,,,,,,,,,,,,,
GOSH_A8,2023-11-10_09h57.45.336,two_step_task_legacy,2022.2.4,Win32,59.34718101,23,learning,0,TRUE,TRUE,2,0.416855262,purple,x,0,64,64,64,1,0.477315304,0.650679566,0.473090091,0.579903099,FALSE,resources/alien3_norm.png,0.473090091,resources/alien4_norm.png,0.579903099,0.2544,alien4,TRUE,2,0.358192125,45,1,0.579903099,m,0.461,,,,,,,,,,,,,,,,,,,,,,,,,,,,,,,,,
GOSH_A8,2023-11-10_09h57.45.336,two_step_task_legacy,2022.2.4,Win32,59.34718101,23,learning,0,TRUE,TRUE,2,0.364659241,purple,x,0,65,65,65,1,0.46552265,0.62334515,0.46600528,0.57197952,FALSE,resources/alien3_norm.png,0.46600528,resources/alien4_norm.png,0.57197952,0.3616,alien4,TRUE,2,0.007595304,46,1,0.57197952,m,0.5379,,,,,,,,,,,,,,,,,,,,,,,,,,,,,,,,,
GOSH_A8,2023-11-10_09h57.45.336,two_step_task_legacy,2022.2.4,Win32,59.34718101,23,learning,0,TRUE,TRUE,2,0.650007603,purple,x,0,66,66,66,1,0.475612123,0.625851031,0.423812817,0.610089415,TRUE,resources/alien4_norm.png,0.610089415,resources/alien3_norm.png,0.423812817,0.2499,alien4,TRUE,3,0.968644776,46,0,0.610089415,x,0.5059,,,,,,,,,,,,,,,,,,,,,,,,,,,,,,,,,
GOSH_A8,2023-11-10_09h57.45.336,two_step_task_legacy,2022.2.4,Win32,59.34718101,23,learning,0,TRUE,TRUE,2,0.147296244,purple,x,0,67,67,67,1,0.488225722,0.591916813,0.389156213,0.604504253,FALSE,resources/alien3_norm.png,0.389156213,resources/alien4_norm.png,0.604504253,0.2673,alien3,TRUE,2,0.175757646,47,1,0.389156213,x,0.7218,,,,,,,,,,,,,,,,,,,,,,,,,,,,,,,,,
GOSH_A8,2023-11-10_09h57.45.336,two_step_task_legacy,2022.2.4,Win32,59.34718101,23,learning,0,TRUE,TRUE,2,0.45468074,purple,x,0,68,68,68,1,0.447473516,0.566650103,0.426911286,0.600400303,TRUE,resources/alien4_norm.png,0.600400303,resources/alien3_norm.png,0.426911286,0.3606,alien3,TRUE,3,0.686859365,47,0,0.426911286,m,0.6234,,,,,,,,,,,,,,,,,,,,,,,,,,,,,,,,,
GOSH_A8,2023-11-10_09h57.45.336,two_step_task_legacy,2022.2.4,Win32,59.34718101,23,learning,1,TRUE,TRUE,3,0.709762386,red,x,0,69,69,69,1,0.446833039,0.601017704,0.419171163,0.645762646,TRUE,resources/alien2_norm.png,0.601017704,resources/alien1_norm.png,0.446833039,0.3193,alien1,TRUE,2,0.1920953,48,1,0.446833039,m,0.6528,,,,,,,,,,,,,,,,,,,,,,,,,,,,,,,,,
GOSH_A8,2023-11-10_09h57.45.336,two_step_task_legacy,2022.2.4,Win32,59.34718101,23,learning,0,TRUE,TRUE,2,0.404865132,purple,x,0,70,70,70,1,0.46229688,0.577212844,0.381881382,0.679798258,TRUE,resources/alien4_norm.png,0.679798258,resources/alien3_norm.png,0.381881382,0.2999,alien3,TRUE,3,0.954156594,48,0,0.381881382,m,0.6253,,,,,,,,,,,,,,,,,,,,,,,,,,,,,,,,,
GOSH_A8,2023-11-10_09h57.45.336,two_step_task_legacy,2022.2.4,Win32,59.34718101,23,learning,0,TRUE,TRUE,2,0.445911513,purple,x,0,71,71,71,1,0.447857256,0.585168326,0.372866063,0.744246282,TRUE,resources/alien4_norm.png,0.744246282,resources/alien3_norm.png,0.372866063,0.4052,alien4,TRUE,3,0.841164627,48,0,0.744246282,x,0.467,,,,,,,,,,,,,,,,,,,,,,,,,,,,,,,,,
GOSH_A8,2023-11-10_09h57.45.336,two_step_task_legacy,2022.2.4,Win32,59.34718101,23,learning,0,TRUE,TRUE,2,0.01984103,purple,x,0,72,72,72,1,0.469156344,0.590253845,0.365658811,0.738925901,TRUE,resources/alien4_norm.png,0.738925901,resources/alien3_norm.png,0.365658811,0.2666,alien4,TRUE,3,0.884018563,48,0,0.738925901,x,0.4657,,,,,,,,,,,,,,,,,,,,,,,,,,,,,,,,,
GOSH_A8,2023-11-10_09h57.45.336,two_step_task_legacy,2022.2.4,Win32,59.34718101,23,learning,0,TRUE,TRUE,2,0.655525714,purple,x,0,73,73,73,1,0.524386296,0.606410566,0.368495441,0.745967699,FALSE,resources/alien3_norm.png,0.368495441,resources/alien4_norm.png,0.745967699,0.348,alien4,TRUE,2,0.375682014,49,1,0.745967699,m,0.3871,,,,,,,,,,,,,,,,,,,,,,,,,,,,,,,,,
GOSH_A8,2023-11-10_09h57.45.336,two_step_task_legacy,2022.2.4,Win32,59.34718101,23,learning,1,TRUE,TRUE,3,0.765589358,red,x,0,74,74,74,1,0.546195851,0.610187899,0.382592524,0.747056302,FALSE,resources/alien1_norm.png,0.546195851,resources/alien2_norm.png,0.610187899,0.4332,alien1,TRUE,2,0.113517492,50,1,0.546195851,x,0.5854,,,,,,,,,,,,,,,,,,,,,,,,,,,,,,,,,
GOSH_A8,2023-11-10_09h57.45.336,two_step_task_legacy,2022.2.4,Win32,59.34718101,23,learning,1,TRUE,TRUE,3,0.976445335,red,x,0,75,75,75,1,0.516674318,0.630410906,0.365808589,0.727966599,TRUE,resources/alien2_norm.png,0.630410906,resources/alien1_norm.png,0.516674318,0.2816,alien1,TRUE,3,0.898240209,50,0,0.516674318,m,0.5005,,,,,,,,,,,,,,,,,,,,,,,,,,,,,,,,,
GOSH_A8,2023-11-10_09h57.45.336,two_step_task_legacy,2022.2.4,Win32,59.34718101,23,learning,0,TRUE,TRUE,2,0.517522168,purple,x,0,76,76,76,1,0.513333865,0.600336462,0.376049182,0.747496672,TRUE,resources/alien4_norm.png,0.747496672,resources/alien3_norm.png,0.376049182,0.2832,alien4,TRUE,2,0.292096754,51,1,0.747496672,x,0.7109,,,,,,,,,,,,,,,,,,,,,,,,,,,,,,,,,
GOSH_A8,2023-11-10_09h57.45.336,two_step_task_legacy,2022.2.4,Win32,59.34718101,23,learning,0,TRUE,TRUE,2,0.161782253,purple,x,0,77,77,77,1,0.533414093,0.616695744,0.366792972,0.743468027,FALSE,resources/alien3_norm.png,0.366792972,resources/alien4_norm.png,0.743468027,0.3108,alien4,TRUE,2,0.144499693,52,1,0.743468027,m,0.6544,,,,,,,,,,,,,,,,,,,,,,,,,,,,,,,,,
GOSH_A8,2023-11-10_09h57.45.336,two_step_task_legacy,2022.2.4,Win32,59.34718101,23,learning,1,TRUE,TRUE,3,0.76426456,red,x,0,78,78,78,1,0.522426186,0.626472856,0.342893528,0.729281693,TRUE,resources/alien2_norm.png,0.626472856,resources/alien1_norm.png,0.522426186,0.3999,alien1,TRUE,2,0.260769444,53,1,0.522426186,m,0.4429,,,,,,,,,,,,,,,,,,,,,,,,,,,,,,,,,
GOSH_A8,2023-11-10_09h57.45.336,two_step_task_legacy,2022.2.4,Win32,59.34718101,23,learning,0,TRUE,TRUE,2,0.294914817,purple,x,0,79,79,79,1,0.537512346,0.612363775,0.328275201,0.732241262,FALSE,resources/alien3_norm.png,0.328275201,resources/alien4_norm.png,0.732241262,0.2337,alien4,TRUE,3,0.831194265,53,0,0.732241262,m,0.4575,,,,,,,,,,,,,,,,,,,,,,,,,,,,,,,,,
GOSH_A8,2023-11-10_09h57.45.336,two_step_task_legacy,2022.2.4,Win32,59.34718101,23,learning,0,TRUE,TRUE,2,0.078022069,purple,x,0,80,80,80,1,0.564643748,0.646040762,0.339910551,0.703847115,TRUE,resources/alien4_norm.png,0.703847115,resources/alien3_norm.png,0.339910551,0.2841,alien4,TRUE,2,0.126905668,54,1,0.703847115,x,0.6267,,,,,,,,,,,,,,,,,,,,,,,,,,,,,,,,,
GOSH_A8,2023-11-10_09h57.45.336,two_step_task_legacy,2022.2.4,Win32,59.34718101,23,learning,0,TRUE,TRUE,2,0.052771001,purple,x,0,81,81,81,1,0.574339547,0.667820554,0.355880374,0.713459204,FALSE,resources/alien3_norm.png,0.355880374,resources/alien4_norm.png,0.713459204,0.2416,alien4,TRUE,3,0.948844298,54,0,0.713459204,m,0.4561,,,,,,,,,,,,,,,,,,,,,,,,,,,,,,,,,
GOSH_A8,2023-11-10_09h57.45.336,two_step_task_legacy,2022.2.4,Win32,59.34718101,23,learning,1,TRUE,TRUE,3,0.800013209,red,x,0,82,82,82,1,0.55697673,0.698602971,0.383992384,0.723108132,FALSE,resources/alien1_norm.png,0.55697673,resources/alien2_norm.png,0.698602971,0.2452,alien1,TRUE,2,0.4222819,55,1,0.55697673,x,0.4264,,,,,,,,,,,,,,,,,,,,,,,,,,,,,,,,,
GOSH_A8,2023-11-10_09h57.45.336,two_step_task_legacy,2022.2.4,Win32,59.34718101,23,learning,0,TRUE,TRUE,3,0.096466389,red,m,0,83,83,83,1,0.520995768,0.688535499,0.388691416,0.74849031,TRUE,resources/alien2_norm.png,0.688535499,resources/alien1_norm.png,0.520995768,0.4925,alien1,TRUE,3,0.958126725,55,0,0.520995768,m,0.4153,,,,,,,,,,,,,,,,,,,,,,,,,,,,,,,,,
GOSH_A8,2023-11-10_09h57.45.336,two_step_task_legacy,2022.2.4,Win32,59.34718101,23,learning,0,TRUE,TRUE,3,0.217051012,red,m,0,84,84,84,1,0.560357955,0.710364652,0.394471814,0.708470458,FALSE,resources/alien1_norm.png,0.560357955,resources/alien2_norm.png,0.710364652,0.2726,alien1,TRUE,3,0.73938638,55,0,0.560357955,x,0.4344,,,,,,,,,,,,,,,,,,,,,,,,,,,,,,,,,
GOSH_A8,2023-11-10_09h57.45.336,two_step_task_legacy,2022.2.4,Win32,59.34718101,23,learning,0,TRUE,TRUE,3,0.290687532,red,m,0,85,85,85,1,0.642492048,0.694563603,0.366165455,0.701290951,TRUE,resources/alien2_norm.png,0.694563603,resources/alien1_norm.png,0.642492048,0.2831,alien1,TRUE,2,0.611580422,56,1,0.642492048,m,0.3911,,,,,,,,,,,,,,,,,,,,,,,,,,,,,,,,,
GOSH_A8,2023-11-10_09h57.45.336,two_step_task_legacy,2022.2.4,Win32,59.34718101,23,learning,0,TRUE,TRUE,3,0.005662899,red,m,0,86,86,86,1,0.659827268,0.693119638,0.339851899,0.68653895,TRUE,resources/alien2_norm.png,0.693119638,resources/alien1_norm.png,0.659827268,0.3222,alien1,TRUE,2,0.374477119,57,1,0.659827268,m,0.3883,,,,,,,,,,,,,,,,,,,,,,,,,,,,,,,,,
GOSH_A8,2023-11-10_09h57.45.336,two_step_task_legacy,2022.2.4,Win32,59.34718101,23,learning,1,TRUE,TRUE,2,0.999103979,purple,m,0,87,87,87,1,0.662335746,0.693358738,0.344034175,0.714890726,FALSE,resources/alien3_norm.png,0.344034175,resources/alien4_norm.png,0.714890726,0.3008,alien4,TRUE,2,0.114827602,58,1,0.714890726,m,0.8716,,,,,,,,,,,,,,,,,,,,,,,,,,,,,,,,,
GOSH_A8,2023-11-10_09h57.45.336,two_step_task_legacy,2022.2.4,Win32,59.34718101,23,learning,0,TRUE,TRUE,3,0.099153994,red,m,0,88,88,88,1,0.654953403,0.711283868,0.317764846,0.686498284,FALSE,resources/alien1_norm.png,0.654953403,resources/alien2_norm.png,0.711283868,0.3002,alien1,TRUE,2,0.654265003,59,1,0.654953403,x,0.4166,,,,,,,,,,,,,,,,,,,,,,,,,,,,,,,,,
GOSH_A8,2023-11-10_09h57.45.336,two_step_task_legacy,2022.2.4,Win32,59.34718101,23,learning,0,TRUE,TRUE,3,0.649777662,red,m,0,89,89,89,1,0.616516022,0.696475853,0.351001491,0.679595828,FALSE,resources/alien1_norm.png,0.616516022,resources/alien2_norm.png,0.696475853,0.2496,alien1,TRUE,3,0.805899359,59,0,0.616516022,x,0.454,,,,,,,,,,,,,,,,,,,,,,,,,,,,,,,,,
GOSH_A8,2023-11-10_09h57.45.336,two_step_task_legacy,2022.2.4,Win32,59.34718101,23,learning,1,TRUE,TRUE,2,0.817837801,purple,m,0,90,90,90,1,0.617393134,0.712975203,0.333950803,0.65457047,TRUE,resources/alien4_norm.png,0.65457047,resources/alien3_norm.png,0.333950803,0.3484,alien4,TRUE,3,0.823075748,59,0,0.65457047,x,0.7104,,,,,,,,,,,,,,,,,,,,,,,,,,,,,,,,,
GOSH_A8,2023-11-10_09h57.45.336,two_step_task_legacy,2022.2.4,Win32,59.34718101,23,learning,1,TRUE,TRUE,2,0.856439095,purple,m,0,91,91,91,1,0.605248488,0.727979256,0.333164568,0.68681226,FALSE,resources/alien3_norm.png,0.333164568,resources/alien4_norm.png,0.68681226,0.2507,alien3,TRUE,2,0.105353484,60,1,0.333164568,x,0.6149,,,,,,,,,,,,,,,,,,,,,,,,,,,,,,,,,
GOSH_A8,2023-11-10_09h57.45.336,two_step_task_legacy,2022.2.4,Win32,59.34718101,23,learning,0,TRUE,TRUE,3,0.186907879,red,m,0,92,92,92,1,0.597920866,0.710049944,0.335050717,0.695375305,TRUE,resources/alien2_norm.png,0.710049944,resources/alien1_norm.png,0.597920866,0.2359,alien1,TRUE,2,0.502642001,61,1,0.597920866,m,0.5732,,,,,,,,,,,,,,,,,,,,,,,,,,,,,,,,,
GOSH_A8,2023-11-10_09h57.45.336,two_step_task_legacy,2022.2.4,Win32,59.34718101,23,learning,0,TRUE,TRUE,3,0.597467687,red,m,0,93,93,93,1,0.570087701,0.695892733,0.361676132,0.705704451,TRUE,resources/alien2_norm.png,0.695892733,resources/alien1_norm.png,0.570087701,0.2249,alien1,TRUE,3,0.820051287,61,0,0.570087701,m,0.512,,,,,,,,,,,,,,,,,,,,,,,,,,,,,,,,,
GOSH_A8,2023-11-10_09h57.45.336,two_step_task_legacy,2022.2.4,Win32,59.34718101,23,learning,1,TRUE,TRUE,2,0.788793982,purple,m,0,94,94,94,1,0.529720036,0.708120691,0.335318237,0.711789496,FALSE,resources/alien3_norm.png,0.335318237,resources/alien4_norm.png,0.711789496,0.2779,alien3,TRUE,2,0.265236182,62,1,0.335318237,x,0.6991,,,,,,,,,,,,,,,,,,,,,,,,,,,,,,,,,
GOSH_A8,2023-11-10_09h57.45.336,two_step_task_legacy,2022.2.4,Win32,59.34718101,23,learning,1,TRUE,TRUE,2,0.907029555,purple,m,0,95,95,95,1,0.47635657,0.721500672,0.398221116,0.682412233,TRUE,resources/alien4_norm.png,0.682412233,resources/alien3_norm.png,0.398221116,0.2499,alien3,TRUE,2,0.267401926,63,1,0.398221116,m,0.4296,,,,,,,,,,,,,,,,,,,,,,,,,,,,,,,,,
GOSH_A8,2023-11-10_09h57.45.336,two_step_task_legacy,2022.2.4,Win32,59.34718101,23,learning,0,TRUE,TRUE,3,0.32617879,red,m,0,96,96,96,1,0.466179965,0.715414355,0.401364405,0.649304922,FALSE,resources/alien1_norm.png,0.466179965,resources/alien2_norm.png,0.715414355,0.2195,alien1,TRUE,3,0.621637107,63,0,0.466179965,x,0.5959,,,,,,,,,,,,,,,,,,,,,,,,,,,,,,,,,
GOSH_A8,2023-11-10_09h57.45.336,two_step_task_legacy,2022.2.4,Win32,59.34718101,23,learning,0,TRUE,TRUE,2,0.047656626,purple,x,0,97,97,97,1,0.467126539,0.723595882,0.396988401,0.645948713,FALSE,resources/alien3_norm.png,0.396988401,resources/alien4_norm.png,0.645948713,0.3705,alien3,TRUE,3,0.8297402,63,0,0.396988401,x,0.4155,,,,,,,,,,,,,,,,,,,,,,,,,,,,,,,,,
GOSH_A8,2023-11-10_09h57.45.336,two_step_task_legacy,2022.2.4,Win32,59.34718101,23,learning,0,TRUE,TRUE,2,0.69235902,purple,x,0,98,98,98,1,0.439790307,0.696269276,0.433219326,0.668586832,FALSE,resources/alien3_norm.png,0.433219326,resources/alien4_norm.png,0.668586832,0.4061,alien3,TRUE,3,0.824373807,63,0,0.433219326,x,0.2997,,,,,,,,,,,,,,,,,,,,,,,,,,,,,,,,,
GOSH_A8,2023-11-10_09h57.45.336,two_step_task_legacy,2022.2.4,Win32,59.34718101,23,learning,0,TRUE,TRUE,2,0.582336898,purple,x,0,99,99,99,1,0.464800643,0.659724849,0.442086132,0.680060197,TRUE,resources/alien4_norm.png,0.680060197,resources/alien3_norm.png,0.442086132,0.2838,alien3,TRUE,3,0.622207266,63,0,0.442086132,m,0.468,,,,,,,,,,,,,,,,,,,,,,,,,,,,,,,,,
GOSH_A8,2023-11-10_09h57.45.336,two_step_task_legacy,2022.2.4,Win32,59.34718101,23,learning,0,TRUE,TRUE,2,0.132502219,purple,x,0,100,100,100,1,0.453655036,0.648409952,0.432642845,0.688821162,TRUE,resources/alien4_norm.png,0.688821162,resources/alien3_norm.png,0.432642845,0.3439,alien4,TRUE,2,0.305316203,64,1,0.688821162,x,0.3772,,,,,,,,,,,,,,,,,,,,,,,,,,,,,,,,,
GOSH_A8,2023-11-10_09h57.45.336,two_step_task_legacy,2022.2.4,Win32,59.34718101,23,learning,1,TRUE,TRUE,3,0.784999329,red,x,0,101,101,101,1,0.480154937,0.66099901,0.452743872,0.655063209,FALSE,resources/alien1_norm.png,0.480154937,resources/alien2_norm.png,0.66099901,0.2451,alien1,TRUE,2,0.268591614,65,1,0.480154937,x,0.6942,,,,,,,,,,,,,,,,,,,,,,,,,,,,,,,,,
GOSH_A8,2023-11-10_09h57.45.336,two_step_task_legacy,2022.2.4,Win32,59.34718101,23,learning,1,TRUE,TRUE,3,0.996476346,red,x,0,102,102,102,1,0.435064291,0.686802619,0.456887081,0.675596743,FALSE,resources/alien1_norm.png,0.435064291,resources/alien2_norm.png,0.686802619,0.3278,alien1,TRUE,3,0.890065115,65,0,0.435064291,x,0.6262,,,,,,,,,,,,,,,,,,,,,,,,,,,,,,,,,
GOSH_A8,2023-11-10_09h57.45.336,two_step_task_legacy,2022.2.4,Win32,59.34718101,23,learning,0,TRUE,TRUE,2,0.07475055,purple,x,0,103,103,103,1,0.4274682,0.689975019,0.437649181,0.728894923,TRUE,resources/alien4_norm.png,0.728894923,resources/alien3_norm.png,0.437649181,0.2842,alien4,TRUE,3,0.801309614,65,0,0.728894923,x,0.6413,,,,,,,,,,,,,,,,,,,,,,,,,,,,,,,,,
GOSH_A8,2023-11-10_09h57.45.336,two_step_task_legacy,2022.2.4,Win32,59.34718101,23,learning,1,TRUE,TRUE,2,0.791344652,purple,m,0,104,104,104,1,0.394205489,0.723807258,0.448066099,0.744590341,FALSE,resources/alien3_norm.png,0.448066099,resources/alien4_norm.png,0.744590341,0.2507,alien3,TRUE,2,0.273374946,66,1,0.448066099,x,0.8706,,,,,,,,,,,,,,,,,,,,,,,,,,,,,,,,,
GOSH_A8,2023-11-10_09h57.45.336,two_step_task_legacy,2022.2.4,Win32,59.34718101,23,learning,0,TRUE,TRUE,3,0.22176167,red,m,0,105,105,105,1,0.37371153,0.742093466,0.485443502,0.723819794,TRUE,resources/alien2_norm.png,0.742093466,resources/alien1_norm.png,0.37371153,0.3028,alien2,TRUE,3,0.80071696,66,0,0.742093466,x,0.5686,,,,,,,,,,,,,,,,,,,,,,,,,,,,,,,,,
GOSH_A8,2023-11-10_09h57.45.336,two_step_task_legacy,2022.2.4,Win32,59.34718101,23,learning,0,TRUE,TRUE,3,0.367233117,red,m,0,106,106,106,1,0.349275118,0.734634343,0.478530119,0.67031434,TRUE,resources/alien2_norm.png,0.734634343,resources/alien1_norm.png,0.349275118,0.3104,alien2,TRUE,3,0.775889078,66,0,0.734634343,x,0.3831,,,,,,,,,,,,,,,,,,,,,,,,,,,,,,,,,
GOSH_A8,2023-11-10_09h57.45.336,two_step_task_legacy,2022.2.4,Win32,59.34718101,23,learning,0,TRUE,TRUE,3,0.193770368,red,m,0,107,107,107,1,0.35021253,0.718841441,0.495373807,0.709673268,TRUE,resources/alien2_norm.png,0.718841441,resources/alien1_norm.png,0.35021253,0.3709,alien2,TRUE,3,0.865380903,66,0,0.718841441,x,0.3839,,,,,,,,,,,,,,,,,,,,,,,,,,,,,,,,,
GOSH_A8,2023-11-10_09h57.45.336,two_step_task_legacy,2022.2.4,Win32,59.34718101,23,learning,0,TRUE,TRUE,2,0.576006829,purple,x,0,108,108,108,1,0.337348022,0.676963284,0.450735795,0.731898862,TRUE,resources/alien4_norm.png,0.731898862,resources/alien3_norm.png,0.450735795,0.3059,alien4,TRUE,2,0.509906983,67,1,0.731898862,x,0.5202,,,,,,,,,,,,,,,,,,,,,,,,,,,,,,,,,
GOSH_A8,2023-11-10_09h57.45.336,two_step_task_legacy,2022.2.4,Win32,59.34718101,23,learning,0,TRUE,TRUE,2,0.209733861,purple,x,0,109,109,109,1,0.322911322,0.662157072,0.480315234,0.74430369,TRUE,resources/alien4_norm.png,0.74430369,resources/alien3_norm.png,0.480315234,0.2374,alien4,TRUE,2,0.609441658,68,1,0.74430369,x,0.3499,,,,,,,,,,,,,,,,,,,,,,,,,,,,,,,,,
GOSH_A8,2023-11-10_09h57.45.336,two_step_task_legacy,2022.2.4,Win32,59.34718101,23,learning,0,TRUE,TRUE,2,0.640251403,purple,x,0,110,110,110,1,0.323042006,0.729054729,0.477745384,0.7400153,TRUE,resources/alien4_norm.png,0.7400153,resources/alien3_norm.png,0.477745384,0.2724,alien4,TRUE,2,0.733522119,69,1,0.7400153,x,0.3207,,,,,,,,,,,,,,,,,,,,,,,,,,,,,,,,,
GOSH_A8,2023-11-10_09h57.45.336,two_step_task_legacy,2022.2.4,Win32,59.34718101,23,learning,0,TRUE,TRUE,2,0.692410906,purple,x,0,111,111,111,1,0.346977723,0.717049686,0.502964312,0.740528536,FALSE,resources/alien3_norm.png,0.502964312,resources/alien4_norm.png,0.740528536,0.2113,alien3,TRUE,3,0.824259144,69,0,0.502964312,x,0.3197,,,,,,,,,,,,,,,,,,,,,,,,,,,,,,,,,
GOSH_A8,2023-11-10_09h57.45.336,two_step_task_legacy,2022.2.4,Win32,59.34718101,23,learning,0,TRUE,TRUE,2,0.177147068,purple,x,0,112,112,112,1,0.332641057,0.710505866,0.560076847,0.746181252,TRUE,resources/alien4_norm.png,0.746181252,resources/alien3_norm.png,0.560076847,0.2332,alien4,TRUE,2,0.361946539,70,1,0.746181252,x,0.5396,,,,,,,,,,,,,,,,,,,,,,,,,,,,,,,,,
GOSH_A8,2023-11-10_09h57.45.336,two_step_task_legacy,2022.2.4,Win32,59.34718101,23,learning,0,TRUE,TRUE,2,0.004348688,purple,x,0,113,113,113,1,0.329582244,0.713556046,0.551953466,0.737084193,FALSE,resources/alien3_norm.png,0.551953466,resources/alien4_norm.png,0.737084193,0.2189,alien4,TRUE,2,0.544300775,71,1,0.737084193,m,0.4065,,,,,,,,,,,,,,,,,,,,,,,,,,,,,,,,,
GOSH_A8,2023-11-10_09h57.45.336,two_step_task_legacy,2022.2.4,Win32,59.34718101,23,learning,1,TRUE,TRUE,3,0.937794981,red,x,0,114,114,114,1,0.300863762,0.698255739,0.54581186,0.722210778,FALSE,resources/alien1_norm.png,0.300863762,resources/alien2_norm.png,0.698255739,0.217,alien1,TRUE,3,0.554401513,71,0,0.300863762,x,0.4354,,,,,,,,,,,,,,,,,,,,,,,,,,,,,,,,,
GOSH_A8,2023-11-10_09h57.45.336,two_step_task_legacy,2022.2.4,Win32,59.34718101,23,learning,1,TRUE,TRUE,3,0.978801075,red,x,0,115,115,115,1,0.335585272,0.683609207,0.527422928,0.744852234,TRUE,resources/alien2_norm.png,0.683609207,resources/alien1_norm.png,0.335585272,0.2684,alien1,TRUE,2,0.247451577,72,1,0.335585272,m,0.649,,,,,,,,,,,,,,,,,,,,,,,,,,,,,,,,,
GOSH_A8,2023-11-10_09h57.45.336,two_step_task_legacy,2022.2.4,Win32,59.34718101,23,learning,0,TRUE,TRUE,2,0.627289104,purple,x,0,116,116,116,1,0.358671417,0.690248802,0.529277885,0.710357088,TRUE,resources/alien4_norm.png,0.710357088,resources/alien3_norm.png,0.529277885,0.2173,alien4,TRUE,2,0.557042011,73,1,0.710357088,x,0.3918,,,,,,,,,,,,,,,,,,,,,,,,,,,,,,,,,
GOSH_A8,2023-11-10_09h57.45.336,two_step_task_legacy,2022.2.4,Win32,59.34718101,23,learning,0,TRUE,TRUE,2,0.614131057,purple,x,0,117,117,117,1,0.395365799,0.718538292,0.547665382,0.724019431,FALSE,resources/alien3_norm.png,0.547665382,resources/alien4_norm.png,0.724019431,0.2206,alien4,TRUE,2,0.484538607,74,1,0.724019431,m,0.396,,,,,,,,,,,,,,,,,,,,,,,,,,,,,,,,,
GOSH_A8,2023-11-10_09h57.45.336,two_step_task_legacy,2022.2.4,Win32,59.34718101,23,learning,0,TRUE,TRUE,2,0.501964734,purple,x,0,118,118,118,1,0.384016558,0.721594268,0.542102089,0.74235091,TRUE,resources/alien4_norm.png,0.74235091,resources/alien3_norm.png,0.542102089,0.2165,alien4,TRUE,2,0.024043558,75,1,0.74235091,x,0.4,,,,,,,,,,,,,,,,,,,,,,,,,,,,,,,,,
GOSH_A8,2023-11-10_09h57.45.336,two_step_task_legacy,2022.2.4,Win32,59.34718101,23,learning,0,TRUE,TRUE,2,0.462559812,purple,x,0,119,119,119,1,0.379194304,0.706850908,0.527099802,0.742572012,TRUE,resources/alien4_norm.png,0.742572012,resources/alien3_norm.png,0.527099802,0.2693,alien4,TRUE,2,0.546772716,76,1,0.742572012,x,0.3416,,,,,,,,,,,,,,,,,,,,,,,,,,,,,,,,,
GOSH_A8,2023-11-10_09h57.45.336,two_step_task_legacy,2022.2.4,Win32,59.34718101,23,learning,0,TRUE,TRUE,2,0.646385234,purple,x,0,120,120,120,1,0.311589413,0.742746316,0.497453415,0.747849489,FALSE,resources/alien3_norm.png,0.497453415,resources/alien4_norm.png,0.747849489,0.2246,alien4,TRUE,2,0.037396807,77,1,0.747849489,m,0.4207,,,,,,,,,,,,,,,,,,,,,,,,,,,,,,,,,
GOSH_A8,2023-11-10_09h57.45.336,two_step_task_legacy,2022.2.4,Win32,59.34718101,23,learning,0,TRUE,TRUE,2,0.59483471,purple,x,0,121,121,121,1,0.288613638,0.734331013,0.493636211,0.732948846,FALSE,resources/alien3_norm.png,0.493636211,resources/alien4_norm.png,0.732948846,0.2433,alien4,TRUE,2,0.718125123,78,1,0.732948846,m,0.4449,,,,,,,,,,,,,,,,,,,,,,,,,,,,,,,,,
GOSH_A8,2023-11-10_09h57.45.336,two_step_task_legacy,2022.2.4,Win32,59.34718101,23,learning,0,TRUE,TRUE,2,0.241078266,purple,x,0,122,122,122,1,0.327163232,0.735030185,0.458718952,0.712748711,TRUE,resources/alien4_norm.png,0.712748711,resources/alien3_norm.png,0.458718952,0.2242,alien4,TRUE,2,0.526107556,79,1,0.712748711,x,0.3361,,,,,,,,,,,,,,,,,,,,,,,,,,,,,,,,,
GOSH_A8,2023-11-10_09h57.45.336,two_step_task_legacy,2022.2.4,Win32,59.34718101,23,learning,1,TRUE,TRUE,3,0.961108005,red,x,0,123,123,123,1,0.325553926,0.735188606,0.414123906,0.707920788,FALSE,resources/alien1_norm.png,0.325553926,resources/alien2_norm.png,0.735188606,0.2699,alien1,TRUE,3,0.455811383,79,0,0.325553926,x,0.6512,,,,,,,,,,,,,,,,,,,,,,,,,,,,,,,,,
GOSH_A8,2023-11-10_09h57.45.336,two_step_task_legacy,2022.2.4,Win32,59.34718101,23,learning,0,TRUE,TRUE,2,0.180236062,purple,x,0,124,124,124,1,0.332284924,0.728011457,0.358787311,0.719523144,FALSE,resources/alien3_norm.png,0.358787311,resources/alien4_norm.png,0.719523144,0.2729,alien4,TRUE,2,0.243608283,80,1,0.719523144,m,0.5122,,,,,,,,,,,,,,,,,,,,,,,,,,,,,,,,,
GOSH_A8,2023-11-10_09h57.45.336,two_step_task_legacy,2022.2.4,Win32,59.34718101,23,learning,0,TRUE,TRUE,2,0.177313833,purple,x,0,125,125,125,1,0.326093405,0.695840729,0.400002364,0.736399527,FALSE,resources/alien3_norm.png,0.400002364,resources/alien4_norm.png,0.736399527,0.2367,alien4,TRUE,2,0.55691488,81,1,0.736399527,m,0.5324,,,,,,,,,,,,,,,,,,,,,,,,,,,,,,,,,
GOSH_A8,2023-11-10_09h57.45.336,two_step_task_legacy,2022.2.4,Win32,59.34718101,23,learning,0,TRUE,TRUE,2,0.607021954,purple,x,0,126,126,126,1,0.323930204,0.660568372,0.427141787,0.734764761,TRUE,resources/alien4_norm.png,0.734764761,resources/alien3_norm.png,0.427141787,0.0827,alien4,TRUE,3,0.828734131,81,0,0.734764761,x,0.4664,,,,,,,,,,,,,,,,,,,,,,,,,,,,,,,,,
GOSH_A8,2023-11-10_09h57.45.336,two_step_task_legacy,2022.2.4,Win32,59.34718101,23,learning,0,TRUE,TRUE,2,0.420293944,purple,x,0,127,127,127,1,0.340229983,0.647692248,0.427069701,0.72143708,FALSE,resources/alien3_norm.png,0.427069701,resources/alien4_norm.png,0.72143708,0.2954,alien4,TRUE,2,0.384531959,82,1,0.72143708,m,0.5075,,,,,,,,,,,,,,,,,,,,,,,,,,,,,,,,,
GOSH_A8,2023-11-10_09h57.45.336,two_step_task_legacy,2022.2.4,Win32,59.34718101,23,learning,0,TRUE,TRUE,2,0.262054344,purple,x,0,128,128,128,1,0.338813549,0.630816083,0.40499619,0.744385778,FALSE,resources/alien3_norm.png,0.40499619,resources/alien4_norm.png,0.744385778,0.2499,alien4,TRUE,2,0.634935546,83,1,0.744385778,m,0.4263,,,,,,,,,,,,,,,,,,,,,,,,,,,,,,,,,
GOSH_A8,2023-11-10_09h57.45.336,two_step_task_legacy,2022.2.4,Win32,59.34718101,23,learning,1,TRUE,TRUE,3,0.782199641,red,x,0,129,129,129,1,0.336434737,0.661989018,0.444389232,0.724357321,TRUE,resources/alien2_norm.png,0.661989018,resources/alien1_norm.png,0.336434737,0.2374,alien2,TRUE,2,0.560665833,84,1,0.661989018,x,0.5141,,,,,,,,,,,,,,,,,,,,,,,,,,,,,,,,,
GOSH_A8,2023-11-10_09h57.45.336,two_step_task_legacy,2022.2.4,Win32,59.34718101,23,learning,0,TRUE,TRUE,2,0.018596919,purple,x,0,130,130,130,1,0.290559274,0.672971781,0.428715926,0.730204744,TRUE,resources/alien4_norm.png,0.730204744,resources/alien3_norm.png,0.428715926,0.2362,alien4,TRUE,2,0.227700793,85,1,0.730204744,x,0.399,,,,,,,,,,,,,,,,,,,,,,,,,,,,,,,,,
GOSH_A8,2023-11-10_09h57.45.336,two_step_task_legacy,2022.2.4,Win32,59.34718101,23,learning,0,TRUE,TRUE,2,0.508456795,purple,x,0,131,131,131,1,0.316122369,0.620277314,0.426712563,0.736924708,FALSE,resources/alien3_norm.png,0.426712563,resources/alien4_norm.png,0.736924708,0.2496,alien4,TRUE,2,0.448662852,86,1,0.736924708,m,0.3886,,,,,,,,,,,,,,,,,,,,,,,,,,,,,,,,,
GOSH_A8,2023-11-10_09h57.45.336,two_step_task_legacy,2022.2.4,Win32,59.34718101,23,learning,0,TRUE,TRUE,2,0.519082481,purple,x,0,132,132,132,1,0.351537647,0.634556363,0.428806971,0.745455893,TRUE,resources/alien4_norm.png,0.745455893,resources/alien3_norm.png,0.428806971,0.2231,alien4,TRUE,2,0.36431249,87,1,0.745455893,x,0.4177,,,,,,,,,,,,,,,,,,,,,,,,,,,,,,,,,
GOSH_A8,2023-11-10_09h57.45.336,two_step_task_legacy,2022.2.4,Win32,59.34718101,23,learning,0,TRUE,TRUE,2,0.67920571,purple,x,0,133,133,133,1,0.36337083,0.630455363,0.393697106,0.746235282,FALSE,resources/alien3_norm.png,0.393697106,resources/alien4_norm.png,0.746235282,0.2549,alien4,TRUE,2,0.024949546,88,1,0.746235282,m,0.4194,,,,,,,,,,,,,,,,,,,,,,,,,,,,,,,,,
GOSH_A8,2023-11-10_09h57.45.336,two_step_task_legacy,2022.2.4,Win32,59.34718101,23,learning,1,TRUE,TRUE,3,0.789808796,red,x,0,134,134,134,1,0.391533394,0.629464294,0.40193756,0.744542488,TRUE,resources/alien2_norm.png,0.629464294,resources/alien1_norm.png,0.391533394,0.1979,alien2,TRUE,2,0.476140584,89,1,0.629464294,x,0.5833,,,,,,,,,,,,,,,,,,,,,,,,,,,,,,,,,
GOSH_A8,2023-11-10_09h57.45.336,two_step_task_legacy,2022.2.4,Win32,59.34718101,23,learning,0,TRUE,TRUE,2,0.654654632,purple,x,0,135,135,135,1,0.369719776,0.638245617,0.393998803,0.715176093,TRUE,resources/alien4_norm.png,0.715176093,resources/alien3_norm.png,0.393998803,0.2674,alien4,TRUE,2,0.710470488,90,1,0.715176093,x,0.5864,,,,,,,,,,,,,,,,,,,,,,,,,,,,,,,,,
GOSH_A8,2023-11-10_09h57.45.336,two_step_task_legacy,2022.2.4,Win32,59.34718101,23,learning,1,TRUE,TRUE,3,0.91189122,red,x,0,136,136,136,1,0.366198559,0.649511756,0.413754202,0.707095008,FALSE,resources/alien1_norm.png,0.366198559,resources/alien2_norm.png,0.649511756,0.2967,alien2,TRUE,3,0.900971857,90,0,0.649511756,m,0.6054,,,,,,,,,,,,,,,,,,,,,,,,,,,,,,,,,
GOSH_A8,2023-11-10_09h57.45.336,two_step_task_legacy,2022.2.4,Win32,59.34718101,23,learning,1,TRUE,TRUE,3,0.810912579,red,x,0,137,137,137,1,0.382888211,0.652072629,0.397718097,0.712484856,FALSE,resources/alien1_norm.png,0.382888211,resources/alien2_norm.png,0.652072629,0.2671,alien2,TRUE,3,0.982092359,90,0,0.652072629,m,0.483,,,,,,,,,,,,,,,,,,,,,,,,,,,,,,,,,
GOSH_A8,2023-11-10_09h57.45.336,two_step_task_legacy,2022.2.4,Win32,59.34718101,23,learning,0,TRUE,TRUE,2,0.422997993,purple,x,0,138,138,138,1,0.343581066,0.668249043,0.403132479,0.693717942,TRUE,resources/alien4_norm.png,0.693717942,resources/alien3_norm.png,0.403132479,0.3008,alien4,TRUE,2,0.149797522,91,1,0.693717942,x,0.4668,,,,,,,,,,,,,,,,,,,,,,,,,,,,,,,,,
GOSH_A8,2023-11-10_09h57.45.336,two_step_task_legacy,2022.2.4,Win32,59.34718101,23,learning,1,TRUE,TRUE,3,0.91371985,red,x,0,139,139,139,1,0.363838317,0.672524194,0.435461559,0.688514127,FALSE,resources/alien1_norm.png,0.363838317,resources/alien2_norm.png,0.672524194,0.2892,alien2,TRUE,2,0.308960855,92,1,0.672524194,m,0.378,,,,,,,,,,,,,,,,,,,,,,,,,,,,,,,,,
GOSH_A8,2023-11-10_09h57.45.336,two_step_task_legacy,2022.2.4,Win32,59.34718101,23,learning,1,TRUE,TRUE,3,0.844154894,red,x,0,140,140,140,1,0.379344852,0.710972025,0.439845091,0.693632034,TRUE,resources/alien2_norm.png,0.710972025,resources/alien1_norm.png,0.379344852,0.2526,alien2,TRUE,3,0.792275592,92,0,0.710972025,x,0.5064,,,,,,,,,,,,,,,,,,,,,,,,,,,,,,,,,
GOSH_A8,2023-11-10_09h57.45.336,two_step_task_legacy,2022.2.4,Win32,59.34718101,23,learning,0,TRUE,TRUE,2,0.220665236,purple,x,0,141,141,141,1,0.373374152,0.729873496,0.431317014,0.69214813,FALSE,resources/alien3_norm.png,0.431317014,resources/alien4_norm.png,0.69214813,0.2623,alien3,TRUE,2,0.354964931,93,1,0.431317014,x,0.5011,,,,,,,,,,,,,,,,,,,,,,,,,,,,,,,,,
GOSH_A8,2023-11-10_09h57.45.336,two_step_task_legacy,2022.2.4,Win32,59.34718101,23,learning,0,TRUE,TRUE,2,0.456573616,purple,x,0,142,142,142,1,0.390669051,0.716383606,0.452030427,0.674123188,TRUE,resources/alien4_norm.png,0.674123188,resources/alien3_norm.png,0.452030427,0.2682,alien4,TRUE,2,0.572008697,94,1,0.674123188,x,0.6041,,,,,,,,,,,,,,,,,,,,,,,,,,,,,,,,,
GOSH_A8,2023-11-10_09h57.45.336,two_step_task_legacy,2022.2.4,Win32,59.34718101,23,learning,0,TRUE,TRUE,2,0.111808536,purple,x,0,143,143,143,1,0.339477736,0.744969912,0.442360919,0.639333921,TRUE,resources/alien4_norm.png,0.639333921,resources/alien3_norm.png,0.442360919,0.3002,alien4,TRUE,3,0.872671285,94,0,0.639333921,x,0.4831,,,,,,,,,,,,,,,,,,,,,,,,,,,,,,,,,
GOSH_A8,2023-11-10_09h57.45.336,two_step_task_legacy,2022.2.4,Win32,59.34718101,23,learning,0,TRUE,TRUE,2,0.449243986,purple,x,0,144,144,144,1,0.317803938,0.710844956,0.42051828,0.612593584,TRUE,resources/alien4_norm.png,0.612593584,resources/alien3_norm.png,0.42051828,0.2184,alien4,TRUE,3,0.814521132,94,0,0.612593584,x,0.3913,,,,,,,,,,,,,,,,,,,,,,,,,,,,,,,,,
GOSH_A8,2023-11-10_09h57.45.336,two_step_task_legacy,2022.2.4,Win32,59.34718101,23,learning,0,TRUE,TRUE,2,0.458975773,purple,x,0,145,145,145,1,0.311104109,0.746481624,0.446044137,0.635215037,TRUE,resources/alien4_norm.png,0.635215037,resources/alien3_norm.png,0.446044137,0.2932,alien4,TRUE,2,0.468662479,95,1,0.635215037,x,0.4578,,,,,,,,,,,,,,,,,,,,,,,,,,,,,,,,,
GOSH_A8,2023-11-10_09h57.45.336,two_step_task_legacy,2022.2.4,Win32,59.34718101,23,learning,0,TRUE,TRUE,2,0.662126025,purple,x,0,146,146,146,1,0.322435636,0.748817246,0.457400821,0.626838599,FALSE,resources/alien3_norm.png,0.457400821,resources/alien4_norm.png,0.626838599,0.2864,alien4,TRUE,3,0.934414887,95,0,0.626838599,m,0.5289,,,,,,,,,,,,,,,,,,,,,,,,,,,,,,,,,
GOSH_A8,2023-11-10_09h57.45.336,two_step_task_legacy,2022.2.4,Win32,59.34718101,23,learning,0,TRUE,TRUE,2,0.04945532,purple,x,0,147,147,147,1,0.311003061,0.708845948,0.444423405,0.604796627,FALSE,resources/alien3_norm.png,0.444423405,resources/alien4_norm.png,0.604796627,0.1613,alien4,TRUE,2,0.055485002,96,1,0.604796627,m,0.449,,,,,,,,,,,,,,,,,,,,,,,,,,,,,,,,,
GOSH_A8,2023-11-10_09h57.45.336,two_step_task_legacy,2022.2.4,Win32,59.34718101,23,learning,0,TRUE,TRUE,2,0.404889512,purple,x,0,148,148,148,1,0.323921279,0.709213445,0.466381219,0.575008043,TRUE,resources/alien4_norm.png,0.575008043,resources/alien3_norm.png,0.466381219,0.2382,alien4,TRUE,3,0.759082636,96,0,0.575008043,x,0.4228,,,,,,,,,,,,,,,,,,,,,,,,,,,,,,,,,
GOSH_A8,2023-11-10_09h57.45.336,two_step_task_legacy,2022.2.4,Win32,59.34718101,23,learning,0,TRUE,TRUE,2,0.014829236,purple,x,0,149,149,149,1,0.320184667,0.703134316,0.42955844,0.581290383,TRUE,resources/alien4_norm.png,0.581290383,resources/alien3_norm.png,0.42955844,0.2663,alien4,TRUE,2,0.570228018,97,1,0.581290383,x,0.5367,,,,,,,,,,,,,,,,,,,,,,,,,,,,,,,,,
GOSH_A8,2023-11-10_09h57.45.336,two_step_task_legacy,2022.2.4,Win32,59.34718101,23,learning,0,TRUE,TRUE,2,0.627331638,purple,x,0,150,150,150,1,0.3,0.7,0.4,0.6,TRUE,resources/alien4_norm.png,0.6,resources/alien3_norm.png,0.4,0.1998,alien4,TRUE,2,0.015692974,98,1,0.6,x,0.4239,,,,,,,,,,,,,,,,,,,,,,,,,,,,,,,,,
GOSH_A8,2023-11-10_09h57.45.336,two_step_task_legacy,2022.2.4,Win32,59.34718101,23,learning,0,TRUE,TRUE,2,0.62000337,purple,x,0,151,151,151,1,0.3,0.7,0.4,0.6,TRUE,resources/alien4_norm.png,0.6,resources/alien3_norm.png,0.4,0.3044,alien4,TRUE,2,0.380276559,99,1,0.6,x,0.3345,,,,,,,,,,,,,,,,,,,,,,,,,,,,,,,,,
GOSH_A8,2023-11-10_09h57.45.336,two_step_task_legacy,2022.2.4,Win32,59.34718101,23,learning,0,TRUE,TRUE,2,0.180592039,purple,x,0,152,152,152,1,0.3,0.7,0.4,0.6,FALSE,resources/alien3_norm.png,0.4,resources/alien4_norm.png,0.6,0.1845,alien4,TRUE,3,0.730167384,99,0,0.6,m,0.6611,,,,,,,,,,,,,,,,,,,,,,,,,,,,,,,,,
GOSH_A8,2023-11-10_09h57.45.336,two_step_task_legacy,2022.2.4,Win32,59.34718101,23,learning,0,TRUE,TRUE,2,0.232339583,purple,x,0,153,153,153,1,0.3,0.7,0.4,0.6,FALSE,resources/alien3_norm.png,0.4,resources/alien4_norm.png,0.6,0.3498,alien3,TRUE,3,0.603497518,99,0,0.4,x,0.4206,,,,,,,,,,,,,,,,,,,,,,,,,,,,,,,,,
GOSH_A8,2023-11-10_09h57.45.336,two_step_task_legacy,2022.2.4,Win32,59.34718101,23,learning,0,TRUE,TRUE,2,0.301478377,purple,x,0,154,154,154,1,0.3,0.7,0.4,0.6,FALSE,resources/alien3_norm.png,0.4,resources/alien4_norm.png,0.6,0.2754,alien3,TRUE,3,0.504020016,99,0,0.4,x,0.3999,,,,,,,,,,,,,,,,,,,,,,,,,,,,,,,,,
GOSH_A8,2023-11-10_09h57.45.336,two_step_task_legacy,2022.2.4,Win32,59.34718101,23,learning,0,TRUE,TRUE,2,0.423226789,purple,x,0,155,155,155,1,0.3,0.7,0.4,0.6,FALSE,resources/alien3_norm.png,0.4,resources/alien4_norm.png,0.6,0.133,alien4,TRUE,2,0.357167925,100,1,0.6,m,0.4386,,,,,,,,,,,,,,,,,,,,,,,,,,,,,,,,,
GOSH_A8,2023-11-10_09h57.45.336,two_step_task_legacy,2022.2.4,Win32,59.34718101,23,learning,0,TRUE,TRUE,2,0.489905392,purple,x,0,156,156,156,1,0.3,0.7,0.4,0.6,TRUE,resources/alien4_norm.png,0.6,resources/alien3_norm.png,0.4,0.2507,alien4,TRUE,2,0.495005053,101,1,0.6,x,0.4665,,,,,,,,,,,,,,,,,,,,,,,,,,,,,,,,,
GOSH_A8,2023-11-10_09h57.45.336,two_step_task_legacy,2022.2.4,Win32,59.34718101,23,learning,0,TRUE,TRUE,2,0.317459979,purple,x,0,157,157,157,1,0.3,0.7,0.4,0.6,FALSE,resources/alien3_norm.png,0.4,resources/alien4_norm.png,0.6,0.391,alien4,TRUE,2,0.439981863,102,1,0.6,m,0.3771,,,,,,,,,,,,,,,,,,,,,,,,,,,,,,,,,
GOSH_A8,2023-11-10_09h57.45.336,two_step_task_legacy,2022.2.4,Win32,59.34718101,23,learning,0,TRUE,TRUE,2,0.655083719,purple,x,0,158,158,158,1,0.3,0.7,0.4,0.6,FALSE,resources/alien3_norm.png,0.4,resources/alien4_norm.png,0.6,0.206,alien4,TRUE,3,0.971505783,102,0,0.6,m,0.3881,,,,,,,,,,,,,,,,,,,,,,,,,,,,,,,,,
GOSH_A8,2023-11-10_09h57.45.336,two_step_task_legacy,2022.2.4,Win32,59.34718101,23,learning,0,TRUE,TRUE,2,0.609941693,purple,x,0,159,159,159,1,0.3,0.7,0.4,0.6,TRUE,resources/alien4_norm.png,0.6,resources/alien3_norm.png,0.4,0.4528,alien4,TRUE,3,0.804527481,102,0,0.6,x,0.4432,,,,,,,,,,,,,,,,,,,,,,,,,,,,,,,,,
GOSH_A8,2023-11-10_09h57.45.336,two_step_task_legacy,2022.2.4,Win32,59.34718101,23,learning,0,TRUE,TRUE,3,0.100603341,red,m,0,160,160,160,1,0.3,0.7,0.4,0.6,FALSE,resources/alien1_norm.png,0.3,resources/alien2_norm.png,0.7,0.2695,alien2,TRUE,2,0.4065047,103,1,0.7,m,0.4156,,,,,,,,,,,,,,,,,,,,,,,,,,,,,,,,,
GOSH_A8,2023-11-10_09h57.45.336,two_step_task_legacy,2022.2.4,Win32,59.34718101,23,learning,1,TRUE,TRUE,2,0.935164287,purple,m,0,161,161,161,1,0.3,0.7,0.4,0.6,TRUE,resources/alien4_norm.png,0.6,resources/alien3_norm.png,0.4,0.2355,alien4,TRUE,2,0.059612099,104,1,0.6,x,0.6869,,,,,,,,,,,,,,,,,,,,,,,,,,,,,,,,,
GOSH_A8,2023-11-10_09h57.45.336,two_step_task_legacy,2022.2.4,Win32,59.34718101,23,learning,0,TRUE,TRUE,3,0.469110321,red,m,0,162,162,162,1,0.3,0.7,0.4,0.6,FALSE,resources/alien1_norm.png,0.3,resources/alien2_norm.png,0.7,0.2268,alien2,TRUE,2,0.230317271,105,1,0.7,m,0.4508,,,,,,,,,,,,,,,,,,,,,,,,,,,,,,,,,
GOSH_A8,2023-11-10_09h57.45.336,two_step_task_legacy,2022.2.4,Win32,59.34718101,23,learning,0,TRUE,TRUE,3,0.660902848,red,m,0,163,163,163,1,0.3,0.7,0.4,0.6,FALSE,resources/alien1_norm.png,0.3,resources/alien2_norm.png,0.7,0.2349,alien2,TRUE,3,0.705753345,105,0,0.7,m,0.3798,,,,,,,,,,,,,,,,,,,,,,,,,,,,,,,,,
GOSH_A8,2023-11-10_09h57.45.336,two_step_task_legacy,2022.2.4,Win32,59.34718101,23,learning,0,TRUE,TRUE,3,0.00452043,red,m,0,164,164,164,1,0.3,0.7,0.4,0.6,FALSE,resources/alien1_norm.png,0.3,resources/alien2_norm.png,0.7,0.2454,alien2,TRUE,2,0.57694115,106,1,0.7,m,0.3832,,,,,,,,,,,,,,,,,,,,,,,,,,,,,,,,,
GOSH_A8,2023-11-10_09h57.45.336,two_step_task_legacy,2022.2.4,Win32,59.34718101,23,learning,1,TRUE,TRUE,2,0.993396452,purple,m,0,165,165,165,1,0.3,0.7,0.4,0.6,FALSE,resources/alien3_norm.png,0.4,resources/alien4_norm.png,0.6,0.2102,alien4,TRUE,3,0.908946815,106,0,0.6,m,0.7703,,,,,,,,,,,,,,,,,,,,,,,,,,,,,,,,,
GOSH_A8,2023-11-10_09h57.45.336,two_step_task_legacy,2022.2.4,Win32,59.34718101,23,learning,0,TRUE,TRUE,3,0.108649975,red,m,0,166,166,166,1,0.3,0.7,0.4,0.6,TRUE,resources/alien2_norm.png,0.7,resources/alien1_norm.png,0.3,0.2338,alien2,TRUE,2,0.269725169,107,1,0.7,x,0.4529,,,,,,,,,,,,,,,,,,,,,,,,,,,,,,,,,
GOSH_A8,2023-11-10_09h57.45.336,two_step_task_legacy,2022.2.4,Win32,59.34718101,23,learning,0,TRUE,TRUE,3,0.598275159,red,m,0,167,167,167,1,0.3,0.7,0.4,0.6,FALSE,resources/alien1_norm.png,0.3,resources/alien2_norm.png,0.7,0.1835,alien2,TRUE,2,0.512070939,108,1,0.7,m,0.4176,,,,,,,,,,,,,,,,,,,,,,,,,,,,,,,,,
GOSH_A8,2023-11-10_09h57.45.336,two_step_task_legacy,2022.2.4,Win32,59.34718101,23,learning,0,TRUE,TRUE,3,0.442369392,red,m,0,168,168,168,1,0.3,0.7,0.4,0.6,FALSE,resources/alien1_norm.png,0.3,resources/alien2_norm.png,0.7,0.2342,alien2,TRUE,3,0.959587101,108,0,0.7,m,0.3858,,,,,,,,,,,,,,,,,,,,,,,,,,,,,,,,,
GOSH_A8,2023-11-10_09h57.45.336,two_step_task_legacy,2022.2.4,Win32,59.34718101,23,learning,0,TRUE,TRUE,3,0.033359354,red,m,0,169,169,169,1,0.3,0.7,0.4,0.6,TRUE,resources/alien2_norm.png,0.7,resources/alien1_norm.png,0.3,0.2,alien2,TRUE,3,0.991809249,108,0,0.7,x,0.451,,,,,,,,,,,,,,,,,,,,,,,,,,,,,,,,,
GOSH_A8,2023-11-10_09h57.45.336,two_step_task_legacy,2022.2.4,Win32,59.34718101,23,learning,0,TRUE,TRUE,3,0.290056675,red,m,0,170,170,170,1,0.3,0.7,0.4,0.6,TRUE,resources/alien2_norm.png,0.7,resources/alien1_norm.png,0.3,0.3297,alien2,TRUE,3,0.899770894,108,0,0.7,x,0.3504,,,,,,,,,,,,,,,,,,,,,,,,,,,,,,,,,
GOSH_A8,2023-11-10_09h57.45.336,two_step_task_legacy,2022.2.4,Win32,59.34718101,23,learning,1,TRUE,TRUE,2,0.924697548,purple,m,0,171,171,171,1,0.3,0.7,0.4,0.6,FALSE,resources/alien3_norm.png,0.4,resources/alien4_norm.png,0.6,0.228,alien4,TRUE,2,0.405335954,109,1,0.6,m,0.7202,,,,,,,,,,,,,,,,,,,,,,,,,,,,,,,,,
GOSH_A8,2023-11-10_09h57.45.336,two_step_task_legacy,2022.2.4,Win32,59.34718101,23,learning,0,TRUE,TRUE,3,0.002692645,red,m,0,172,172,172,1,0.3,0.7,0.4,0.6,TRUE,resources/alien2_norm.png,0.7,resources/alien1_norm.png,0.3,0.3409,alien2,TRUE,2,0.483991279,110,1,0.7,x,0.3988,,,,,,,,,,,,,,,,,,,,,,,,,,,,,,,,,
GOSH_A8,2023-11-10_09h57.45.336,two_step_task_legacy,2022.2.4,Win32,59.34718101,23,learning,0,TRUE,TRUE,3,0.648509725,red,m,0,173,173,173,1,0.3,0.7,0.4,0.6,FALSE,resources/alien1_norm.png,0.3,resources/alien2_norm.png,0.7,0.1831,alien2,TRUE,2,0.111585826,111,1,0.7,m,0.4797,,,,,,,,,,,,,,,,,,,,,,,,,,,,,,,,,
GOSH_A8,2023-11-10_09h57.45.336,two_step_task_legacy,2022.2.4,Win32,59.34718101,23,learning,0,TRUE,TRUE,3,0.409389713,red,m,0,174,174,174,1,0.3,0.7,0.4,0.6,TRUE,resources/alien2_norm.png,0.7,resources/alien1_norm.png,0.3,0.2574,alien2,TRUE,2,0.119091799,112,1,0.7,x,0.4129,,,,,,,,,,,,,,,,,,,,,,,,,,,,,,,,,
GOSH_A8,2023-11-10_09h57.45.336,two_step_task_legacy,2022.2.4,Win32,59.34718101,23,learning,0,TRUE,TRUE,3,0.347911261,red,m,0,175,175,175,1,0.3,0.7,0.4,0.6,TRUE,resources/alien2_norm.png,0.7,resources/alien1_norm.png,0.3,0.2218,alien2,TRUE,2,0.504403207,113,1,0.7,x,0.4043,,,,,,,,,,,,,,,,,,,,,,,,,,,,,,,,,
GOSH_A8,2023-11-10_09h57.45.336,two_step_task_legacy,2022.2.4,Win32,59.34718101,23,learning,0,TRUE,TRUE,3,0.157854669,red,m,0,176,176,176,1,0.3,0.7,0.4,0.6,FALSE,resources/alien1_norm.png,0.3,resources/alien2_norm.png,0.7,0.2282,alien2,TRUE,2,0.346505397,114,1,0.7,m,0.4056,,,,,,,,,,,,,,,,,,,,,,,,,,,,,,,,,
GOSH_A8,2023-11-10_09h57.45.336,two_step_task_legacy,2022.2.4,Win32,59.34718101,23,learning,0,TRUE,TRUE,3,0.57288097,red,m,0,177,177,177,1,0.3,0.7,0.4,0.6,TRUE,resources/alien2_norm.png,0.7,resources/alien1_norm.png,0.3,0.3479,alien2,TRUE,2,0.510345612,115,1,0.7,x,0.3518,,,,,,,,,,,,,,,,,,,,,,,,,,,,,,,,,
GOSH_A8,2023-11-10_09h57.45.336,two_step_task_legacy,2022.2.4,Win32,59.34718101,23,learning,1,TRUE,TRUE,2,0.822386951,purple,m,0,178,178,178,1,0.3,0.7,0.4,0.6,TRUE,resources/alien4_norm.png,0.6,resources/alien3_norm.png,0.4,0.2207,alien4,TRUE,2,0.25293959,116,1,0.6,x,0.5494,,,,,,,,,,,,,,,,,,,,,,,,,,,,,,,,,
GOSH_A8,2023-11-10_09h57.45.336,two_step_task_legacy,2022.2.4,Win32,59.34718101,23,learning,0,TRUE,TRUE,3,0.646079566,red,m,0,179,179,179,1,0.3,0.7,0.4,0.6,FALSE,resources/alien1_norm.png,0.3,resources/alien2_norm.png,0.7,0.2509,alien2,TRUE,2,0.296912511,117,1,0.7,m,0.3749,,,,,,,,,,,,,,,,,,,,,,,,,,,,,,,,,
GOSH_A8,2023-11-10_09h57.45.336,two_step_task_legacy,2022.2.4,Win32,59.34718101,23,learning,0,TRUE,TRUE,3,0.294371442,red,m,0,180,180,180,1,0.3,0.7,0.4,0.6,FALSE,resources/alien1_norm.png,0.3,resources/alien2_norm.png,0.7,0.2459,alien2,TRUE,3,0.740142909,117,0,0.7,m,0.4159,,,,,,,,,,,,,,,,,,,,,,,,,,,,,,,,,
GOSH_A8,2023-11-10_09h57.45.336,two_step_task_legacy,2022.2.4,Win32,59.34718101,23,learning,0,TRUE,TRUE,3,0.568380046,red,m,0,181,181,181,1,0.3,0.7,0.4,0.6,TRUE,resources/alien2_norm.png,0.7,resources/alien1_norm.png,0.3,0.2728,alien2,TRUE,2,0.655003136,118,1,0.7,x,0.4509,,,,,,,,,,,,,,,,,,,,,,,,,,,,,,,,,
GOSH_A8,2023-11-10_09h57.45.336,two_step_task_legacy,2022.2.4,Win32,59.34718101,23,learning,1,TRUE,TRUE,2,0.743311946,purple,m,0,182,182,182,1,0.3,0.7,0.4,0.6,FALSE,resources/alien3_norm.png,0.4,resources/alien4_norm.png,0.6,0.3022,alien4,TRUE,3,0.646763412,118,0,0.6,m,0.4662,,,,,,,,,,,,,,,,,,,,,,,,,,,,,,,,,
GOSH_A8,2023-11-10_09h57.45.336,two_step_task_legacy,2022.2.4,Win32,59.34718101,23,learning,1,TRUE,TRUE,2,0.905614136,purple,m,0,183,183,183,1,0.3,0.7,0.4,0.6,TRUE,resources/alien4_norm.png,0.6,resources/alien3_norm.png,0.4,0.2649,alien4,TRUE,2,0.157833864,119,1,0.6,x,0.493,,,,,,,,,,,,,,,,,,,,,,,,,,,,,,,,,
GOSH_A8,2023-11-10_09h57.45.336,two_step_task_legacy,2022.2.4,Win32,59.34718101,23,learning,0,TRUE,TRUE,3,0.154093732,red,m,0,184,184,184,1,0.3,0.7,0.4,0.6,FALSE,resources/alien1_norm.png,0.3,resources/alien2_norm.png,0.7,0.2081,alien2,TRUE,2,0.330565495,120,1,0.7,m,0.4327,,,,,,,,,,,,,,,,,,,,,,,,,,,,,,,,,
GOSH_A8,2023-11-10_09h57.45.336,two_step_task_legacy,2022.2.4,Win32,59.34718101,23,learning,0,TRUE,TRUE,3,0.084872889,red,m,0,185,185,185,1,0.3,0.7,0.4,0.6,FALSE,resources/alien1_norm.png,0.3,resources/alien2_norm.png,0.7,0.0526,alien2,TRUE,2,0.14055817,121,1,0.7,m,0.3377,,,,,,,,,,,,,,,,,,,,,,,,,,,,,,,,,
GOSH_A8,2023-11-10_09h57.45.336,two_step_task_legacy,2022.2.4,Win32,59.34718101,23,learning,0,TRUE,TRUE,3,0.363245775,red,m,0,186,186,186,1,0.3,0.7,0.4,0.6,FALSE,resources/alien1_norm.png,0.3,resources/alien2_norm.png,0.7,0.1998,alien2,TRUE,2,0.005496918,122,1,0.7,m,0.406,,,,,,,,,,,,,,,,,,,,,,,,,,,,,,,,,
GOSH_A8,2023-11-10_09h57.45.336,two_step_task_legacy,2022.2.4,Win32,59.34718101,23,learning,1,TRUE,TRUE,2,0.882730691,purple,m,0,187,187,187,1,0.3,0.7,0.4,0.6,FALSE,resources/alien3_norm.png,0.4,resources/alien4_norm.png,0.6,0.2049,alien4,TRUE,3,0.989088549,122,0,0.6,m,0.7825,,,,,,,,,,,,,,,,,,,,,,,,,,,,,,,,,
GOSH_A8,2023-11-10_09h57.45.336,two_step_task_legacy,2022.2.4,Win32,59.34718101,23,learning,0,TRUE,TRUE,3,0.28088407,red,m,0,188,188,188,1,0.3,0.7,0.4,0.6,FALSE,resources/alien1_norm.png,0.3,resources/alien2_norm.png,0.7,0.2329,alien2,TRUE,2,0.42719708,123,1,0.7,m,0.4509,,,,,,,,,,,,,,,,,,,,,,,,,,,,,,,,,
GOSH_A8,2023-11-10_09h57.45.336,two_step_task_legacy,2022.2.4,Win32,59.34718101,23,learning,0,TRUE,TRUE,3,0.416430384,red,m,0,189,189,189,1,0.3,0.7,0.4,0.6,TRUE,resources/alien2_norm.png,0.7,resources/alien1_norm.png,0.3,0.2047,alien2,TRUE,2,0.0291363,124,1,0.7,x,0.4242,,,,,,,,,,,,,,,,,,,,,,,,,,,,,,,,,
GOSH_A8,2023-11-10_09h57.45.336,two_step_task_legacy,2022.2.4,Win32,59.34718101,23,learning,0,TRUE,TRUE,3,0.044539976,red,m,0,190,190,190,1,0.3,0.7,0.4,0.6,TRUE,resources/alien2_norm.png,0.7,resources/alien1_norm.png,0.3,0.1943,alien2,TRUE,2,0.220145131,125,1,0.7,x,0.4326,,,,,,,,,,,,,,,,,,,,,,,,,,,,,,,,,
GOSH_A8,2023-11-10_09h57.45.336,two_step_task_legacy,2022.2.4,Win32,59.34718101,23,learning,1,TRUE,TRUE,2,0.936349852,purple,m,0,191,191,191,1,0.3,0.7,0.4,0.6,TRUE,resources/alien4_norm.png,0.6,resources/alien3_norm.png,0.4,0.3224,alien3,TRUE,3,0.527499475,125,0,0.4,m,0.7071,,,,,,,,,,,,,,,,,,,,,,,,,,,,,,,,,
GOSH_A8,2023-11-10_09h57.45.336,two_step_task_legacy,2022.2.4,Win32,59.34718101,23,learning,1,TRUE,TRUE,2,0.818119378,purple,m,0,192,192,192,1,0.3,0.7,0.4,0.6,TRUE,resources/alien4_norm.png,0.6,resources/alien3_norm.png,0.4,0.2163,alien3,TRUE,3,0.954525095,125,0,0.4,m,0.5063,,,,,,,,,,,,,,,,,,,,,,,,,,,,,,,,,
GOSH_A8,2023-11-10_09h57.45.336,two_step_task_legacy,2022.2.4,Win32,59.34718101,23,learning,0,TRUE,TRUE,3,0.439706604,red,m,0,193,193,193,1,0.3,0.7,0.4,0.6,TRUE,resources/alien2_norm.png,0.7,resources/alien1_norm.png,0.3,0.25,alien2,TRUE,2,0.39932047,126,1,0.7,x,0.5698,,,,,,,,,,,,,,,,,,,,,,,,,,,,,,,,,
GOSH_A8,2023-11-10_09h57.45.336,two_step_task_legacy,2022.2.4,Win32,59.34718101,23,learning,1,TRUE,TRUE,2,0.902918928,purple,m,0,194,194,194,1,0.3,0.7,0.4,0.6,TRUE,resources/alien4_norm.png,0.6,resources/alien3_norm.png,0.4,0.2206,alien3,TRUE,2,0.256138295,127,1,0.4,m,0.434,,,,,,,,,,,,,,,,,,,,,,,,,,,,,,,,,
GOSH_A8,2023-11-10_09h57.45.336,two_step_task_legacy,2022.2.4,Win32,59.34718101,23,learning,0,TRUE,TRUE,3,0.07941004,red,m,0,195,195,195,1,0.3,0.7,0.4,0.6,FALSE,resources/alien1_norm.png,0.3,resources/alien2_norm.png,0.7,0.2833,alien2,TRUE,3,0.815214458,127,0,0.7,m,0.4721,,,,,,,,,,,,,,,,,,,,,,,,,,,,,,,,,
GOSH_A8,2023-11-10_09h57.45.336,two_step_task_legacy,2022.2.4,Win32,59.34718101,23,learning,0,TRUE,TRUE,3,0.098143323,red,m,0,196,196,196,1,0.3,0.7,0.4,0.6,TRUE,resources/alien2_norm.png,0.7,resources/alien1_norm.png,0.3,0.1829,alien2,TRUE,2,0.008177495,128,1,0.7,x,0.4821,,,,,,,,,,,,,,,,,,,,,,,,,,,,,,,,,
GOSH_A8,2023-11-10_09h57.45.336,two_step_task_legacy,2022.2.4,Win32,59.34718101,23,learning,0,TRUE,TRUE,3,0.267444655,red,m,0,197,197,197,1,0.3,0.7,0.4,0.6,FALSE,resources/alien1_norm.png,0.3,resources/alien2_norm.png,0.7,0.2497,alien2,TRUE,2,0.139113354,129,1,0.7,m,0.4853,,,,,,,,,,,,,,,,,,,,,,,,,,,,,,,,,
GOSH_A8,2023-11-10_09h57.45.336,two_step_task_legacy,2022.2.4,Win32,59.34718101,23,learning,0,TRUE,TRUE,3,0.626427267,red,m,0,198,198,198,1,0.3,0.7,0.4,0.6,TRUE,resources/alien2_norm.png,0.7,resources/alien1_norm.png,0.3,0.2241,alien2,TRUE,3,0.738525778,129,0,0.7,x,0.4527,,,,,,,,,,,,,,,,,,,,,,,,,,,,,,,,,
GOSH_A8,2023-11-10_09h57.45.336,two_step_task_legacy,2022.2.4,Win32,59.34718101,23,learning,1,TRUE,TRUE,3,0.832289431,red,x,0,199,199,199,1,0.3,0.7,0.4,0.6,FALSE,resources/alien1_norm.png,0.3,resources/alien2_norm.png,0.7,0.3353,alien2,TRUE,2,0.211829706,130,1,0.7,m,0.5223,,,,,,,,,,,,,,,,,,,,,,,,,,,,,,,,,
GOSH_A8,2023-11-10_09h57.45.336,two_step_task_legacy,2022.2.4,Win32,59.34718101,23,learning,0,TRUE,TRUE,2,0.449787803,purple,x,0,200,200,200,1,0.3,0.7,0.4,0.6,FALSE,resources/alien3_norm.png,0.4,resources/alien4_norm.png,0.6,0.2831,alien3,TRUE,3,0.928813178,130,0,0.4,x,0.4108,,,,,,,,,,,,,,,,,,,,,,,,,,,,,,,,,
GOSH_A8,2023-11-10_09h57.45.336,two_step_task_legacy,2022.2.4,Win32,59.34718101,23,learning,1,TRUE,TRUE,3,0.70270755,red,x,0,201,201,201,1,0.3,0.7,0.4,0.6,FALSE,resources/alien1_norm.png,0.3,resources/alien2_norm.png,0.7,0.2813,alien2,TRUE,2,0.329781537,131,1,0.7,m,0.4416,,,,,,,,,,,,,,,,,,,,,,,,,,,,,,,,,
GOSH_A8,2023-11-10_09h57.45.336,two_step_task_legacy,2022.2.4,Win32,59.34718101,23,learning,0,TRUE,TRUE,2,0.490253997,purple,x,0,202,202,202,1,0.3,0.7,0.4,0.6,FALSE,resources/alien3_norm.png,0.4,resources/alien4_norm.png,0.6,0.2426,alien3,TRUE,2,0.233050355,132,1,0.4,x,0.5038,,,,,,,,,,,,,,,,,,,,,,,,,,,,,,,,,
GOSH_A8,2023-11-10_09h57.45.336,two_step_task_legacy,2022.2.4,Win32,59.34718101,23,learning,0,TRUE,TRUE,2,0.663201205,purple,x,0,203,203,203,1,0.3,0.7,0.4,0.6,FALSE,resources/alien3_norm.png,0.4,resources/alien4_norm.png,0.6,0.2829,alien3,TRUE,3,0.918042597,132,0,0.4,x,0.3666,,,,,,,,,,,,,,,,,,,,,,,,,,,,,,,,,
GOSH_A8,2023-11-10_09h57.45.336,two_step_task_legacy,2022.2.4,Win32,59.34718101,23,learning,0,TRUE,TRUE,2,0.221375046,purple,x,0,204,204,204,1,0.3,0.7,0.4,0.6,FALSE,resources/alien3_norm.png,0.4,resources/alien4_norm.png,0.6,0.3247,alien3,TRUE,3,0.462914544,132,0,0.4,x,0.3461,,,,,,,,,,,,,,,,,,,,,,,,,,,,,,,,,
GOSH_A8,2023-11-10_09h57.45.336,two_step_task_legacy,2022.2.4,Win32,59.34718101,23,learning,1,TRUE,TRUE,3,0.704150555,red,x,0,205,205,205,1,0.3,0.7,0.4,0.6,FALSE,resources/alien1_norm.png,0.3,resources/alien2_norm.png,0.7,0.248,alien2,TRUE,3,0.815905699,132,0,0.7,m,0.4869,,,,,,,,,,,,,,,,,,,,,,,,,,,,,,,,,
GOSH_A8,2023-11-10_09h57.45.336,two_step_task_legacy,2022.2.4,Win32,59.34718101,23,learning,0,TRUE,TRUE,2,0.50467335,purple,x,0,206,206,206,1,0.3,0.7,0.4,0.6,TRUE,resources/alien4_norm.png,0.6,resources/alien3_norm.png,0.4,0.2445,alien3,TRUE,3,0.479280373,132,0,0.4,m,0.5879,,,,,,,,,,,,,,,,,,,,,,,,,,,,,,,,,
GOSH_A8,2023-11-10_09h57.45.336,two_step_task_legacy,2022.2.4,Win32,59.34718101,23,learning,1,TRUE,TRUE,2,0.826832075,purple,m,0,207,207,207,1,0.3,0.7,0.4,0.6,TRUE,resources/alien4_norm.png,0.6,resources/alien3_norm.png,0.4,0.4113,alien4,TRUE,3,0.867178614,132,0,0.6,x,0.7374,,,,,,,,,,,,,,,,,,,,,,,,,,,,,,,,,
GOSH_A8,2023-11-10_09h57.45.336,two_step_task_legacy,2022.2.4,Win32,59.34718101,23,learning,1,TRUE,TRUE,2,0.807402343,purple,m,0,208,208,208,1,0.3,0.7,0.4,0.6,FALSE,resources/alien3_norm.png,0.4,resources/alien4_norm.png,0.6,0.284,alien4,TRUE,2,0.445151137,133,1,0.6,m,0.4722,,,,,,,,,,,,,,,,,,,,,,,,,,,,,,,,,
GOSH_A8,2023-11-10_09h57.45.336,two_step_task_legacy,2022.2.4,Win32,59.34718101,23,learning,0,TRUE,TRUE,3,0.334860673,red,m,0,209,209,209,1,0.3,0.7,0.4,0.6,TRUE,resources/alien2_norm.png,0.7,resources/alien1_norm.png,0.3,0.3165,alien2,TRUE,2,0.620794741,134,1,0.7,x,0.5543,,,,,,,,,,,,,,,,,,,,,,,,,,,,,,,,,
GOSH_A8,2023-11-10_09h57.45.336,two_step_task_legacy,2022.2.4,Win32,59.34718101,23,learning,0,TRUE,TRUE,3,0.128016105,red,m,0,210,210,210,1,0.3,0.7,0.4,0.6,FALSE,resources/alien1_norm.png,0.3,resources/alien2_norm.png,0.7,0.248,alien2,TRUE,2,0.472953412,135,1,0.7,m,0.4341,,,,,,,,,,,,,,,,,,,,,,,,,,,,,,,,,
GOSH_A8,2023-11-10_09h57.45.336,two_step_task_legacy,2022.2.4,Win32,59.34718101,23,learning,0,TRUE,TRUE,3,0.499535936,red,m,0,211,211,211,1,0.3,0.7,0.4,0.6,FALSE,resources/alien1_norm.png,0.3,resources/alien2_norm.png,0.7,0.2233,alien2,TRUE,3,0.791724539,135,0,0.7,m,0.3949,,,,,,,,,,,,,,,,,,,,,,,,,,,,,,,,,
GOSH_A8,2023-11-10_09h57.45.336,two_step_task_legacy,2022.2.4,Win32,59.34718101,23,learning,0,TRUE,TRUE,3,0.586320178,red,m,0,212,212,212,1,0.3,0.7,0.4,0.6,TRUE,resources/alien2_norm.png,0.7,resources/alien1_norm.png,0.3,0.2384,alien2,TRUE,3,0.827761717,135,0,0.7,x,0.3674,,,,,,,,,,,,,,,,,,,,,,,,,,,,,,,,,
GOSH_A8,2023-11-10_09h57.45.336,two_step_task_legacy,2022.2.4,Win32,59.34718101,23,learning,1,TRUE,TRUE,2,0.811046069,purple,m,0,213,213,213,1,0.3,0.7,0.4,0.6,TRUE,resources/alien4_norm.png,0.6,resources/alien3_norm.png,0.4,0.2502,alien4,TRUE,3,0.792184334,135,0,0.6,x,0.5824,,,,,,,,,,,,,,,,,,,,,,,,,,,,,,,,,
GOSH_A8,2023-11-10_09h57.45.336,two_step_task_legacy,2022.2.4,Win32,59.34718101,23,learning,0,TRUE,TRUE,3,0.344433828,red,m,0,214,214,214,1,0.3,0.7,0.4,0.6,TRUE,resources/alien2_norm.png,0.7,resources/alien1_norm.png,0.3,0.2938,alien2,TRUE,2,0.041635823,136,1,0.7,x,0.4881,,,,,,,,,,,,,,,,,,,,,,,,,,,,,,,,,
GOSH_A8,2023-11-10_09h57.45.336,two_step_task_legacy,2022.2.4,Win32,59.34718101,23,learning,1,TRUE,TRUE,2,0.832380477,purple,m,0,215,215,215,1,0.3,0.7,0.4,0.6,FALSE,resources/alien3_norm.png,0.4,resources/alien4_norm.png,0.6,0.2332,alien4,TRUE,3,0.981492298,136,0,0.6,m,0.6046,,,,,,,,,,,,,,,,,,,,,,,,,,,,,,,,,
GOSH_A8,2023-11-10_09h57.45.336,two_step_task_legacy,2022.2.4,Win32,59.34718101,23,learning,0,TRUE,TRUE,3,0.189938798,red,m,0,216,216,216,1,0.3,0.7,0.4,0.6,TRUE,resources/alien2_norm.png,0.7,resources/alien1_norm.png,0.3,0.2839,alien1,TRUE,3,0.475947582,136,0,0.3,m,0.6867,,,,,,,,,,,,,,,,,,,,,,,,,,,,,,,,,
GOSH_A8,2023-11-10_09h57.45.336,two_step_task_legacy,2022.2.4,Win32,59.34718101,23,learning,1,TRUE,TRUE,2,0.728919024,purple,m,0,217,217,217,1,0.3,0.7,0.4,0.6,FALSE,resources/alien3_norm.png,0.4,resources/alien4_norm.png,0.6,0.306,alien4,TRUE,3,0.72900444,136,0,0.6,m,0.7405,,,,,,,,,,,,,,,,,,,,,,,,,,,,,,,,,
GOSH_A8,2023-11-10_09h57.45.336,two_step_task_legacy,2022.2.4,Win32,59.34718101,23,learning,0,TRUE,TRUE,3,0.118415251,red,m,0,218,218,218,1,0.3,0.7,0.4,0.6,TRUE,resources/alien2_norm.png,0.7,resources/alien1_norm.png,0.3,0.2572,alien2,TRUE,3,0.997233076,136,0,0.7,x,0.5218,,,,,,,,,,,,,,,,,,,,,,,,,,,,,,,,,
GOSH_A8,2023-11-10_09h57.45.336,two_step_task_legacy,2022.2.4,Win32,59.34718101,23,learning,1,TRUE,TRUE,2,0.984991087,purple,m,0,219,219,219,1,0.3,0.7,0.4,0.6,TRUE,resources/alien4_norm.png,0.6,resources/alien3_norm.png,0.4,0.3724,alien4,TRUE,3,0.924904696,136,0,0.6,x,0.6177,,,,,,,,,,,,,,,,,,,,,,,,,,,,,,,,,
GOSH_A8,2023-11-10_09h57.45.336,two_step_task_legacy,2022.2.4,Win32,59.34718101,23,learning,0,TRUE,TRUE,3,0.358807837,red,m,0,220,220,220,1,0.3,0.7,0.4,0.6,TRUE,resources/alien2_norm.png,0.7,resources/alien1_norm.png,0.3,0.3675,alien2,TRUE,2,0.366937389,137,1,0.7,x,0.4697,,,,,,,,,,,,,,,,,,,,,,,,,,,,,,,,,
GOSH_A8,2023-11-10_09h57.45.336,two_step_task_legacy,2022.2.4,Win32,59.34718101,23,learning,0,TRUE,TRUE,3,0.295093811,red,m,0,221,221,221,1,0.3,0.7,0.4,0.6,FALSE,resources/alien1_norm.png,0.3,resources/alien2_norm.png,0.7,0.2672,alien2,TRUE,2,0.258502403,138,1,0.7,m,0.5412,,,,,,,,,,,,,,,,,,,,,,,,,,,,,,,,,
GOSH_A8,2023-11-10_09h57.45.336,two_step_task_legacy,2022.2.4,Win32,59.34718101,23,learning,0,TRUE,TRUE,3,0.098324187,red,m,0,222,222,222,1,0.3,0.7,0.4,0.6,TRUE,resources/alien2_norm.png,0.7,resources/alien1_norm.png,0.3,0.2083,alien2,TRUE,2,0.129779157,139,1,0.7,x,0.4497,,,,,,,,,,,,,,,,,,,,,,,,,,,,,,,,,
GOSH_A8,2023-11-10_09h57.45.336,two_step_task_legacy,2022.2.4,Win32,59.34718101,23,learning,0,TRUE,TRUE,3,0.00785282,red,m,0,223,223,223,1,0.3,0.7,0.4,0.6,FALSE,resources/alien1_norm.png,0.3,resources/alien2_norm.png,0.7,0.3999,alien2,TRUE,3,0.89570913,139,0,0.7,m,0.5395,,,,,,,,,,,,,,,,,,,,,,,,,,,,,,,,,
GOSH_A8,2023-11-10_09h57.45.336,two_step_task_legacy,2022.2.4,Win32,59.34718101,23,learning,0,TRUE,TRUE,3,0.499674949,red,m,0,224,224,224,1,0.3,0.7,0.4,0.6,TRUE,resources/alien2_norm.png,0.7,resources/alien1_norm.png,0.3,0.2067,alien2,TRUE,2,0.503784115,140,1,0.7,x,0.4396,,,,,,,,,,,,,,,,,,,,,,,,,,,,,,,,,
GOSH_A8,2023-11-10_09h57.45.336,two_step_task_legacy,2022.2.4,Win32,59.34718101,23,learning,1,TRUE,TRUE,2,0.818785928,purple,m,0,225,225,225,1,0.3,0.7,0.4,0.6,TRUE,resources/alien4_norm.png,0.6,resources/alien3_norm.png,0.4,0.2429,alien3,TRUE,2,0.203994917,141,1,0.4,m,0.9814,,,,,,,,,,,,,,,,,,,,,,,,,,,,,,,,,
GOSH_A8,2023-11-10_09h57.45.336,two_step_task_legacy,2022.2.4,Win32,59.34718101,23,learning,0,TRUE,TRUE,3,0.148240179,red,m,0,226,226,226,1,0.3,0.7,0.4,0.6,TRUE,resources/alien2_norm.png,0.7,resources/alien1_norm.png,0.3,0.2334,alien2,TRUE,2,0.556799248,142,1,0.7,x,0.4666,,,,,,,,,,,,,,,,,,,,,,,,,,,,,,,,,
GOSH_A8,2023-11-10_09h57.45.336,two_step_task_legacy,2022.2.4,Win32,59.34718101,23,learning,1,TRUE,TRUE,2,0.890534315,purple,m,0,227,227,227,1,0.3,0.7,0.4,0.6,TRUE,resources/alien4_norm.png,0.6,resources/alien3_norm.png,0.4,0.2404,alien3,TRUE,3,0.427399039,142,0,0.4,m,0.5314,,,,,,,,,,,,,,,,,,,,,,,,,,,,,,,,,
GOSH_A8,2023-11-10_09h57.45.336,two_step_task_legacy,2022.2.4,Win32,59.34718101,23,learning,0,TRUE,TRUE,3,0.0390479,red,m,0,228,228,228,1,0.3,0.7,0.4,0.6,FALSE,resources/alien1_norm.png,0.3,resources/alien2_norm.png,0.7,0.3173,alien2,TRUE,2,0.280510919,143,1,0.7,m,0.4052,,,,,,,,,,,,,,,,,,,,,,,,,,,,,,,,,
GOSH_A8,2023-11-10_09h57.45.336,two_step_task_legacy,2022.2.4,Win32,59.34718101,23,learning,1,TRUE,TRUE,2,0.704799053,purple,m,0,229,229,229,1,0.3,0.7,0.4,0.6,TRUE,resources/alien4_norm.png,0.6,resources/alien3_norm.png,0.4,0.2396,alien3,TRUE,2,0.087244022,144,1,0.4,m,0.6995,,,,,,,,,,,,,,,,,,,,,,,,,,,,,,,,,
GOSH_A8,2023-11-10_09h57.45.336,two_step_task_legacy,2022.2.4,Win32,59.34718101,23,learning,0,TRUE,TRUE,3,0.039074618,red,m,0,230,230,230,1,0.3,0.7,0.4,0.6,TRUE,resources/alien2_norm.png,0.7,resources/alien1_norm.png,0.3,0.2793,alien2,TRUE,2,0.497419165,145,1,0.7,x,0.4722,,,,,,,,,,,,,,,,,,,,,,,,,,,,,,,,,
GOSH_A8,2023-11-10_09h57.45.336,two_step_task_legacy,2022.2.4,Win32,59.34718101,23,learning,0,TRUE,TRUE,3,0.497463708,red,m,0,231,231,231,1,0.3,0.7,0.4,0.6,TRUE,resources/alien2_norm.png,0.7,resources/alien1_norm.png,0.3,0.281,alien2,TRUE,2,0.052638775,146,1,0.7,x,0.4878,,,,,,,,,,,,,,,,,,,,,,,,,,,,,,,,,
GOSH_A8,2023-11-10_09h57.45.336,two_step_task_legacy,2022.2.4,Win32,59.34718101,23,learning,0,TRUE,TRUE,3,0.496176726,red,m,0,232,232,232,1,0.3,0.7,0.4,0.6,FALSE,resources/alien1_norm.png,0.3,resources/alien2_norm.png,0.7,0.1328,alien2,TRUE,2,0.169891756,147,1,0.7,m,0.4321,,,,,,,,,,,,,,,,,,,,,,,,,,,,,,,,,
GOSH_A8,2023-11-10_09h57.45.336,two_step_task_legacy,2022.2.4,Win32,59.34718101,23,learning,1,TRUE,TRUE,2,0.864791219,purple,m,0,233,233,233,1,0.3,0.7,0.4,0.6,TRUE,resources/alien4_norm.png,0.6,resources/alien3_norm.png,0.4,0.232,alien3,TRUE,3,0.757448819,147,0,0.4,m,0.7037,,,,,,,,,,,,,,,,,,,,,,,,,,,,,,,,,
GOSH_A8,2023-11-10_09h57.45.336,two_step_task_legacy,2022.2.4,Win32,59.34718101,23,learning,0,TRUE,TRUE,3,0.605043235,red,m,0,234,234,234,1,0.3,0.7,0.4,0.6,FALSE,resources/alien1_norm.png,0.3,resources/alien2_norm.png,0.7,0.2852,alien2,TRUE,3,0.888637986,147,0,0.7,m,0.386,,,,,,,,,,,,,,,,,,,,,,,,,,,,,,,,,
GOSH_A8,2023-11-10_09h57.45.336,two_step_task_legacy,2022.2.4,Win32,59.34718101,23,learning,0,TRUE,TRUE,3,0.575793137,red,m,0,235,235,235,1,0.3,0.7,0.4,0.6,FALSE,resources/alien1_norm.png,0.3,resources/alien2_norm.png,0.7,0.1645,alien2,TRUE,2,0.037109551,148,1,0.7,m,0.3507,,,,,,,,,,,,,,,,,,,,,,,,,,,,,,,,,
GOSH_A8,2023-11-10_09h57.45.336,two_step_task_legacy,2022.2.4,Win32,59.34718101,23,learning,1,TRUE,TRUE,2,0.922873314,purple,m,0,236,236,236,1,0.3,0.7,0.4,0.6,FALSE,resources/alien3_norm.png,0.4,resources/alien4_norm.png,0.6,0.2884,alien3,TRUE,3,0.593530589,148,0,0.4,x,0.711,,,,,,,,,,,,,,,,,,,,,,,,,,,,,,,,,
GOSH_A8,2023-11-10_09h57.45.336,two_step_task_legacy,2022.2.4,Win32,59.34718101,23,learning,1,TRUE,TRUE,2,0.705395557,purple,m,0,237,237,237,1,0.3,0.7,0.4,0.6,FALSE,resources/alien3_norm.png,0.4,resources/alien4_norm.png,0.6,0.2858,alien3,TRUE,2,0.094778208,149,1,0.4,x,0.6131,,,,,,,,,,,,,,,,,,,,,,,,,,,,,,,,,
GOSH_A8,2023-11-10_09h57.45.336,two_step_task_legacy,2022.2.4,Win32,59.34718101,23,learning,0,TRUE,TRUE,3,0.534226792,red,m,0,238,238,238,1,0.3,0.7,0.4,0.6,FALSE,resources/alien1_norm.png,0.3,resources/alien2_norm.png,0.7,0.2241,alien2,TRUE,3,0.985744885,149,0,0.7,m,0.6108,,,,,,,,,,,,,,,,,,,,,,,,,,,,,,,,,
GOSH_A8,2023-11-10_09h57.45.336,two_step_task_legacy,2022.2.4,Win32,59.34718101,23,learning,1,TRUE,TRUE,2,0.70222089,purple,m,0,239,239,239,1,0.3,0.7,0.4,0.6,FALSE,resources/alien3_norm.png,0.4,resources/alien4_norm.png,0.6,0.3062,alien3,TRUE,3,0.701748608,149,0,0.4,x,0.6165,,,,,,,,,,,,,,,,,,,,,,,,,,,,,,,,,
GOSH_A8,2023-11-10_09h57.45.336,two_step_task_legacy,2022.2.4,Win32,59.34718101,23,learning,1,TRUE,TRUE,2,0.786179994,purple,m,0,240,240,240,1,0.3,0.7,0.4,0.6,FALSE,resources/alien3_norm.png,0.4,resources/alien4_norm.png,0.6,0.2402,alien3,TRUE,3,0.679733256,149,0,0.4,x,0.4487,,,,,,,,,,,,,,,,,,,,,,,,,,,,,,,,,
GOSH_A8,2023-11-10_09h57.45.336,two_step_task_legacy,2022.2.4,Win32,59.34718101,23,learning,1,TRUE,TRUE,2,0.893033327,purple,m,0,241,241,241,1,0.3,0.7,0.4,0.6,FALSE,resources/alien3_norm.png,0.4,resources/alien4_norm.png,0.6,0.2614,alien3,TRUE,3,0.962308137,149,0,0.4,x,1.6947,,,,,,,,,,,,,,,,,,,,,,,,,,,,,,,,,
GOSH_A8,2023-11-10_09h57.45.336,two_step_task_legacy,2022.2.4,Win32,59.34718101,23,learning,0,TRUE,TRUE,3,0.539133977,red,m,0,242,242,242,1,0.3,0.7,0.4,0.6,FALSE,resources/alien1_norm.png,0.3,resources/alien2_norm.png,0.7,0.4275,alien2,TRUE,2,0.439227706,150,1,0.7,m,0.4376,,,,,,,,,,,,,,,,,,,,,,,,,,,,,,,,,
GOSH_A8,2023-11-10_09h57.45.336,two_step_task_legacy,2022.2.4,Win32,59.34718101,23,learning,0,TRUE,TRUE,3,0.611314106,red,m,0,243,243,243,1,0.3,0.7,0.4,0.6,FALSE,resources/alien1_norm.png,0.3,resources/alien2_norm.png,0.7,0.2006,alien2,TRUE,2,0.103737111,151,1,0.7,m,0.4281,,,,,,,,,,,,,,,,,,,,,,,,,,,,,,,,,
GOSH_A8,2023-11-10_09h57.45.336,two_step_task_legacy,2022.2.4,Win32,59.34718101,23,learning,0,TRUE,TRUE,3,0.566813718,red,m,0,244,244,244,1,0.3,0.7,0.4,0.6,FALSE,resources/alien1_norm.png,0.3,resources/alien2_norm.png,0.7,0.2272,alien2,TRUE,3,0.995587642,151,0,0.7,m,0.3707,,,,,,,,,,,,,,,,,,,,,,,,,,,,,,,,,
GOSH_A8,2023-11-10_09h57.45.336,two_step_task_legacy,2022.2.4,Win32,59.34718101,23,learning,1,TRUE,TRUE,2,0.928452314,purple,m,0,245,245,245,1,0.3,0.7,0.4,0.6,TRUE,resources/alien4_norm.png,0.6,resources/alien3_norm.png,0.4,0.2259,alien4,TRUE,2,0.128041649,152,1,0.6,x,0.5031,,,,,,,,,,,,,,,,,,,,,,,,,,,,,,,,,
GOSH_A8,2023-11-10_09h57.45.336,two_step_task_legacy,2022.2.4,Win32,59.34718101,23,learning,1,TRUE,TRUE,2,0.738632016,purple,m,0,246,246,246,1,0.3,0.7,0.4,0.6,FALSE,resources/alien3_norm.png,0.4,resources/alien4_norm.png,0.6,0.2777,alien4,TRUE,3,0.928919606,152,0,0.6,m,0.5895,,,,,,,,,,,,,,,,,,,,,,,,,,,,,,,,,
GOSH_A8,2023-11-10_09h57.45.336,two_step_task_legacy,2022.2.4,Win32,59.34718101,23,learning,1,TRUE,TRUE,2,0.731152644,purple,m,0,247,247,247,1,0.3,0.7,0.4,0.6,TRUE,resources/alien4_norm.png,0.6,resources/alien3_norm.png,0.4,0.5228,alien4,TRUE,3,0.848655172,152,0,0.6,x,0.4673,,,,,,,,,,,,,,,,,,,,,,,,,,,,,,,,,
GOSH_A8,2023-11-10_09h57.45.336,two_step_task_legacy,2022.2.4,Win32,59.34718101,23,learning,0,TRUE,TRUE,3,0.541496505,red,m,0,248,248,248,1,0.3,0.7,0.4,0.6,TRUE,resources/alien2_norm.png,0.7,resources/alien1_norm.png,0.3,0.4724,alien2,TRUE,2,0.20808177,153,1,0.7,x,0.6042,,,,,,,,,,,,,,,,,,,,,,,,,,,,,,,,,
GOSH_A8,2023-11-10_09h57.45.336,two_step_task_legacy,2022.2.4,Win32,59.34718101,23,learning,0,TRUE,TRUE,3,0.150885653,red,m,0,249,249,249,1,0.3,0.7,0.4,0.6,FALSE,resources/alien1_norm.png,0.3,resources/alien2_norm.png,0.7,0.206,alien2,TRUE,2,0.522935818,154,1,0.7,m,0.4676,,,,,,,,,,,,,,,,,,,,,,,,,,,,,,,,,
GOSH_A8,2023-11-10_09h57.45.336,two_step_task_legacy,2022.2.4,Win32,59.34718101,23,learning,1,TRUE,TRUE,2,0.937056935,purple,m,0,250,250,250,1,0.3,0.7,0.4,0.6,TRUE,resources/alien4_norm.png,0.6,resources/alien3_norm.png,0.4,0.2556,alien4,TRUE,2,0.344964051,155,1,0.6,x,0.7275,,,,,,,,,,,,,,,,,,,,,,,,,,,,,,,,,
GOSH_A8,2023-11-10_09h57.45.336,two_step_task_legacy,2022.2.4,Win32,59.34718101,23,learning,0,TRUE,TRUE,3,0.452911707,red,m,0,251,251,251,1,0.3,0.7,0.4,0.6,FALSE,resources/alien1_norm.png,0.3,resources/alien2_norm.png,0.7,0.2341,alien2,TRUE,2,0.532775836,156,1,0.7,m,0.4665,,,,,,,,,,,,,,,,,,,,,,,,,,,,,,,,,
GOSH_A8,2023-11-10_09h57.45.336,two_step_task_legacy,2022.2.4,Win32,59.34718101,23,learning,1,TRUE,TRUE,2,0.781764412,purple,m,0,252,252,252,1,0.3,0.7,0.4,0.6,FALSE,resources/alien3_norm.png,0.4,resources/alien4_norm.png,0.6,0.2344,alien4,TRUE,3,0.837781738,156,0,0.6,m,0.6003,,,,,,,,,,,,,,,,,,,,,,,,,,,,,,,,,
GOSH_A8,2023-11-10_09h57.45.336,two_step_task_legacy,2022.2.4,Win32,59.34718101,23,learning,0,TRUE,TRUE,3,0.04770554,red,m,0,253,253,253,1,0.3,0.7,0.4,0.6,TRUE,resources/alien2_norm.png,0.7,resources/alien1_norm.png,0.3,0.3209,alien2,TRUE,2,0.51515047,157,1,0.7,x,0.5052,,,,,,,,,,,,,,,,,,,,,,,,,,,,,,,,,
GOSH_A8,2023-11-10_09h57.45.336,two_step_task_legacy,2022.2.4,Win32,59.34718101,23,learning,1,TRUE,TRUE,2,0.741866493,purple,m,0,254,254,254,1,0.3,0.7,0.4,0.6,TRUE,resources/alien4_norm.png,0.6,resources/alien3_norm.png,0.4,0.2875,alien4,TRUE,3,0.867938027,157,0,0.6,x,0.5344,,,,,,,,,,,,,,,,,,,,,,,,,,,,,,,,,
GOSH_A8,2023-11-10_09h57.45.336,two_step_task_legacy,2022.2.4,Win32,59.34718101,23,learning,1,TRUE,TRUE,2,0.923981376,purple,m,0,255,255,255,1,0.3,0.7,0.4,0.6,FALSE,resources/alien3_norm.png,0.4,resources/alien4_norm.png,0.6,0.3933,alien4,TRUE,3,0.986870862,157,0,0.6,m,0.4658,,,,,,,,,,,,,,,,,,,,,,,,,,,,,,,,,
GOSH_A8,2023-11-10_09h57.45.336,two_step_task_legacy,2022.2.4,Win32,59.34718101,23,learning,0,TRUE,TRUE,3,0.647415372,red,m,0,256,256,256,1,0.3,0.7,0.4,0.6,TRUE,resources/alien2_norm.png,0.7,resources/alien1_norm.png,0.3,0.2884,alien2,TRUE,3,0.710256591,157,0,0.7,x,0.4229,,,,,,,,,,,,,,,,,,,,,,,,,,,,,,,,,
GOSH_A8,2023-11-10_09h57.45.336,two_step_task_legacy,2022.2.4,Win32,59.34718101,23,learning,0,TRUE,TRUE,3,0.682325571,red,m,0,257,257,257,1,0.3,0.7,0.4,0.6,TRUE,resources/alien2_norm.png,0.7,resources/alien1_norm.png,0.3,0.5394,alien2,TRUE,2,0.09402013,158,1,0.7,x,0.5007,,,,,,,,,,,,,,,,,,,,,,,,,,,,,,,,,
GOSH_A8,2023-11-10_09h57.45.336,two_step_task_legacy,2022.2.4,Win32,59.34718101,23,learning,0,TRUE,TRUE,3,0.615188619,red,m,0,258,258,258,1,0.3,0.7,0.4,0.6,TRUE,resources/alien2_norm.png,0.7,resources/alien1_norm.png,0.3,0.5273,alien2,TRUE,3,0.738614109,158,0,0.7,x,0.4176,,,,,,,,,,,,,,,,,,,,,,,,,,,,,,,,,
GOSH_A8,2023-11-10_09h57.45.336,two_step_task_legacy,2022.2.4,Win32,59.34718101,23,learning,1,TRUE,TRUE,2,0.819383615,purple,m,0,259,259,259,1,0.3,0.7,0.4,0.6,TRUE,resources/alien4_norm.png,0.6,resources/alien3_norm.png,0.4,0.2666,alien4,TRUE,2,0.337040928,159,1,0.6,x,0.5614,,,,,,,,,,,,,,,,,,,,,,,,,,,,,,,,,
GOSH_A8,2023-11-10_09h57.45.336,two_step_task_legacy,2022.2.4,Win32,59.34718101,23,learning,0,TRUE,TRUE,3,0.37290774,red,m,0,260,260,260,1,0.3,0.7,0.4,0.6,TRUE,resources/alien2_norm.png,0.7,resources/alien1_norm.png,0.3,0.2438,alien2,TRUE,2,0.106384167,160,1,0.7,x,0.3942,,,,,,,,,,,,,,,,,,,,,,,,,,,,,,,,,
GOSH_A8,2023-11-10_09h57.45.336,two_step_task_legacy,2022.2.4,Win32,59.34718101,23,learning,0,TRUE,TRUE,3,0.52769527,red,m,0,261,261,261,1,0.3,0.7,0.4,0.6,FALSE,resources/alien1_norm.png,0.3,resources/alien2_norm.png,0.7,0.4207,alien2,TRUE,3,0.779384775,160,0,0.7,m,0.4165,,,,,,,,,,,,,,,,,,,,,,,,,,,,,,,,,
GOSH_A8,2023-11-10_09h57.45.336,two_step_task_legacy,2022.2.4,Win32,59.34718101,23,learning,0,TRUE,TRUE,3,0.412712951,red,m,0,262,262,262,1,0.3,0.7,0.4,0.6,TRUE,resources/alien2_norm.png,0.7,resources/alien1_norm.png,0.3,0.2714,alien1,TRUE,3,0.418354961,160,0,0.3,m,0.794,,,,,,,,,,,,,,,,,,,,,,,,,,,,,,,,,
GOSH_A8,2023-11-10_09h57.45.336,two_step_task_legacy,2022.2.4,Win32,59.34718101,23,learning,1,TRUE,TRUE,2,0.734657257,purple,m,0,263,263,263,1,0.3,0.7,0.4,0.6,FALSE,resources/alien3_norm.png,0.4,resources/alien4_norm.png,0.6,0.316,alien4,TRUE,3,0.986902734,160,0,0.6,m,0.6836,,,,,,,,,,,,,,,,,,,,,,,,,,,,,,,,,
GOSH_A8,2023-11-10_09h57.45.336,two_step_task_legacy,2022.2.4,Win32,59.34718101,23,learning,1,TRUE,TRUE,2,0.802728481,purple,m,0,264,264,264,1,0.3,0.7,0.4,0.6,TRUE,resources/alien4_norm.png,0.6,resources/alien3_norm.png,0.4,0.3233,alien4,TRUE,3,0.837591398,160,0,0.6,x,1.0678,,,,,,,,,,,,,,,,,,,,,,,,,,,,,,,,,
GOSH_A8,2023-11-10_09h57.45.336,two_step_task_legacy,2022.2.4,Win32,59.34718101,23,learning,0,TRUE,TRUE,3,0.516140058,red,m,0,265,265,265,1,0.3,0.7,0.4,0.6,FALSE,resources/alien1_norm.png,0.3,resources/alien2_norm.png,0.7,0.3385,alien2,TRUE,2,0.405978347,161,1,0.7,m,0.4273,,,,,,,,,,,,,,,,,,,,,,,,,,,,,,,,,
GOSH_A8,2023-11-10_09h57.45.336,two_step_task_legacy,2022.2.4,Win32,59.34718101,23,learning,0,TRUE,TRUE,3,0.087686892,red,m,0,266,266,266,1,0.3,0.7,0.4,0.6,FALSE,resources/alien1_norm.png,0.3,resources/alien2_norm.png,0.7,0.1644,alien2,TRUE,2,0.605086794,162,1,0.7,m,0.4008,,,,,,,,,,,,,,,,,,,,,,,,,,,,,,,,,
GOSH_A8,2023-11-10_09h57.45.336,two_step_task_legacy,2022.2.4,Win32,59.34718101,23,learning,0,TRUE,TRUE,3,0.064333035,red,m,0,267,267,267,1,0.3,0.7,0.4,0.6,TRUE,resources/alien2_norm.png,0.7,resources/alien1_norm.png,0.3,0.2439,alien2,TRUE,2,0.244832242,163,1,0.7,x,0.3329,,,,,,,,,,,,,,,,,,,,,,,,,,,,,,,,,
GOSH_A8,2023-11-10_09h57.45.336,two_step_task_legacy,2022.2.4,Win32,59.34718101,23,learning,1,TRUE,TRUE,2,0.76843976,purple,m,0,268,268,268,1,0.3,0.7,0.4,0.6,TRUE,resources/alien4_norm.png,0.6,resources/alien3_norm.png,0.4,0.2399,alien3,TRUE,3,0.707403458,163,0,0.4,m,0.6335,,,,,,,,,,,,,,,,,,,,,,,,,,,,,,,,,
GOSH_A8,2023-11-10_09h57.45.336,two_step_task_legacy,2022.2.4,Win32,59.34718101,23,learning,1,TRUE,TRUE,2,0.927114798,purple,m,0,269,269,269,1,0.3,0.7,0.4,0.6,TRUE,resources/alien4_norm.png,0.6,resources/alien3_norm.png,0.4,0.11,alien3,TRUE,3,0.480870979,163,0,0.4,m,0.5411,,,,,,,,,,,,,,,,,,,,,,,,,,,,,,,,,
GOSH_A8,2023-11-10_09h57.45.336,two_step_task_legacy,2022.2.4,Win32,59.34718101,23,learning,0,TRUE,TRUE,3,0.184377161,red,m,0,270,270,270,1,0.3,0.7,0.4,0.6,TRUE,resources/alien2_norm.png,0.7,resources/alien1_norm.png,0.3,0.25,alien2,TRUE,3,0.70293938,163,0,0.7,x,0.5085,,,,,,,,,,,,,,,,,,,,,,,,,,,,,,,,,
GOSH_A8,2023-11-10_09h57.45.336,two_step_task_legacy,2022.2.4,Win32,59.34718101,23,learning,0,TRUE,TRUE,3,0.414239641,red,m,0,271,271,271,1,0.3,0.7,0.4,0.6,TRUE,resources/alien2_norm.png,0.7,resources/alien1_norm.png,0.3,0.1186,alien2,TRUE,2,0.4340212,164,1,0.7,x,0.3969,,,,,,,,,,,,,,,,,,,,,,,,,,,,,,,,,
GOSH_A8,2023-11-10_09h57.45.336,two_step_task_legacy,2022.2.4,Win32,59.34718101,23,learning,0,TRUE,TRUE,3,0.421438746,red,m,0,272,272,272,1,0.3,0.7,0.4,0.6,TRUE,resources/alien2_norm.png,0.7,resources/alien1_norm.png,0.3,0.2615,alien2,TRUE,2,0.485460457,165,1,0.7,x,0.391,,,,,,,,,,,,,,,,,,,,,,,,,,,,,,,,,
GOSH_A8,2023-11-10_09h57.45.336,two_step_task_legacy,2022.2.4,Win32,59.34718101,23,learning,0,TRUE,TRUE,3,0.03805758,red,m,0,273,273,273,1,0.3,0.7,0.4,0.6,TRUE,resources/alien2_norm.png,0.7,resources/alien1_norm.png,0.3,0.2202,alien2,TRUE,2,0.146878876,166,1,0.7,x,0.3495,,,,,,,,,,,,,,,,,,,,,,,,,,,,,,,,,
GOSH_A8,2023-11-10_09h57.45.336,two_step_task_legacy,2022.2.4,Win32,59.34718101,23,learning,0,TRUE,TRUE,3,0.681799949,red,m,0,274,274,274,1,0.3,0.7,0.4,0.6,FALSE,resources/alien1_norm.png,0.3,resources/alien2_norm.png,0.7,0.0497,alien2,TRUE,3,0.911771701,166,0,0.7,m,0.4507,,,,,,,,,,,,,,,,,,,,,,,,,,,,,,,,,
GOSH_A8,2023-11-10_09h57.45.336,two_step_task_legacy,2022.2.4,Win32,59.34718101,23,learning,0,TRUE,TRUE,3,0.284467466,red,m,0,275,275,275,1,0.3,0.7,0.4,0.6,TRUE,resources/alien2_norm.png,0.7,resources/alien1_norm.png,0.3,0.0497,alien2,TRUE,2,0.625033141,167,1,0.7,x,0.319,,,,,,,,,,,,,,,,,,,,,,,,,,,,,,,,,
GOSH_A8,2023-11-10_09h57.45.336,two_step_task_legacy,2022.2.4,Win32,59.34718101,23,learning,0,TRUE,TRUE,3,0.675872358,red,m,0,276,276,276,1,0.3,0.7,0.4,0.6,FALSE,resources/alien1_norm.png,0.3,resources/alien2_norm.png,0.7,0.256,alien2,TRUE,3,0.983534332,167,0,0.7,m,0.3522,,,,,,,,,,,,,,,,,,,,,,,,,,,,,,,,,
GOSH_A8,2023-11-10_09h57.45.336,two_step_task_legacy,2022.2.4,Win32,59.34718101,23,learning,0,TRUE,TRUE,3,0.442004103,red,m,0,277,277,277,1,0.3,0.7,0.4,0.6,TRUE,resources/alien2_norm.png,0.7,resources/alien1_norm.png,0.3,0.0628,alien1,TRUE,3,0.923789311,167,0,0.3,m,0.3255,,,,,,,,,,,,,,,,,,,,,,,,,,,,,,,,,
GOSH_A8,2023-11-10_09h57.45.336,two_step_task_legacy,2022.2.4,Win32,59.34718101,23,learning,0,TRUE,TRUE,3,0.491639957,red,m,0,278,278,278,1,0.3,0.7,0.4,0.6,FALSE,resources/alien1_norm.png,0.3,resources/alien2_norm.png,0.7,0.1501,alien2,TRUE,2,0.238558015,168,1,0.7,m,0.4261,,,,,,,,,,,,,,,,,,,,,,,,,,,,,,,,,
GOSH_A8,2023-11-10_09h57.45.336,two_step_task_legacy,2022.2.4,Win32,59.34718101,23,learning,0,TRUE,TRUE,3,0.682925097,red,m,0,279,279,279,1,0.3,0.7,0.4,0.6,FALSE,resources/alien1_norm.png,0.3,resources/alien2_norm.png,0.7,0.1674,alien2,TRUE,2,0.543462765,169,1,0.7,m,0.3875,,,,,,,,,,,,,,,,,,,,,,,,,,,,,,,,,
GOSH_A8,2023-11-10_09h57.45.336,two_step_task_legacy,2022.2.4,Win32,59.34718101,23,learning,0,TRUE,TRUE,3,0.217232355,red,m,0,280,280,280,1,0.3,0.7,0.4,0.6,TRUE,resources/alien2_norm.png,0.7,resources/alien1_norm.png,0.3,0.0419,alien2,TRUE,3,0.87252848,169,0,0.7,x,0.3907,,,,,,,,,,,,,,,,,,,,,,,,,,,,,,,,,
GOSH_A8,2023-11-10_09h57.45.336,two_step_task_legacy,2022.2.4,Win32,59.34718101,23,learning,0,TRUE,TRUE,3,0.63217846,red,m,0,281,281,281,1,0.3,0.7,0.4,0.6,TRUE,resources/alien2_norm.png,0.7,resources/alien1_norm.png,0.3,0.0611,alien2,TRUE,2,0.685595729,170,1,0.7,x,0.3924,,,,,,,,,,,,,,,,,,,,,,,,,,,,,,,,,
GOSH_A8,2023-11-10_09h57.45.336,two_step_task_legacy,2022.2.4,Win32,59.34718101,23,learning,0,TRUE,TRUE,3,0.364538112,red,m,0,282,282,282,1,0.3,0.7,0.4,0.6,FALSE,resources/alien1_norm.png,0.3,resources/alien2_norm.png,0.7,0.0672,alien2,TRUE,2,0.359190066,171,1,0.7,m,0.3794,,,,,,,,,,,,,,,,,,,,,,,,,,,,,,,,,
GOSH_A8,2023-11-10_09h57.45.336,two_step_task_legacy,2022.2.4,Win32,59.34718101,23,learning,1,TRUE,TRUE,2,0.847271069,purple,m,0,283,283,283,1,0.3,0.7,0.4,0.6,TRUE,resources/alien4_norm.png,0.6,resources/alien3_norm.png,0.4,0.1498,alien4,TRUE,2,0.414301266,172,1,0.6,x,0.7188,,,,,,,,,,,,,,,,,,,,,,,,,,,,,,,,,
GOSH_A8,2023-11-10_09h57.45.336,two_step_task_legacy,2022.2.4,Win32,59.34718101,23,learning,1,TRUE,TRUE,2,0.734652526,purple,m,0,284,284,284,1,0.3,0.7,0.4,0.6,TRUE,resources/alien4_norm.png,0.6,resources/alien3_norm.png,0.4,0.0205,alien4,TRUE,3,0.661137283,172,0,0.6,x,0.3844,,,,,,,,,,,,,,,,,,,,,,,,,,,,,,,,,
GOSH_A8,2023-11-10_09h57.45.336,two_step_task_legacy,2022.2.4,Win32,59.34718101,23,learning,0,TRUE,TRUE,3,0.034802928,red,m,0,285,285,285,1,0.3,0.7,0.4,0.6,FALSE,resources/alien1_norm.png,0.3,resources/alien2_norm.png,0.7,0.1675,alien2,TRUE,2,0.486759289,173,1,0.7,m,0.4999,,,,,,,,,,,,,,,,,,,,,,,,,,,,,,,,,
GOSH_A8,2023-11-10_09h57.45.336,two_step_task_legacy,2022.2.4,Win32,59.34718101,23,learning,1,TRUE,TRUE,2,0.788633912,purple,m,0,286,286,286,1,0.3,0.7,0.4,0.6,TRUE,resources/alien4_norm.png,0.6,resources/alien3_norm.png,0.4,0.223,alien4,TRUE,2,0.153256723,174,1,0.6,x,0.3265,,,,,,,,,,,,,,,,,,,,,,,,,,,,,,,,,
GOSH_A8,2023-11-10_09h57.45.336,two_step_task_legacy,2022.2.4,Win32,59.34718101,23,learning,1,TRUE,TRUE,2,0.7012531,purple,m,0,287,287,287,1,0.3,0.7,0.4,0.6,TRUE,resources/alien4_norm.png,0.6,resources/alien3_norm.png,0.4,0.2333,alien4,TRUE,2,0.543588772,175,1,0.6,x,0.3332,,,,,,,,,,,,,,,,,,,,,,,,,,,,,,,,,
GOSH_A8,2023-11-10_09h57.45.336,two_step_task_legacy,2022.2.4,Win32,59.34718101,23,learning,1,TRUE,TRUE,2,0.738531657,purple,m,0,288,288,288,1,0.3,0.7,0.4,0.6,FALSE,resources/alien3_norm.png,0.4,resources/alien4_norm.png,0.6,0.1837,alien4,TRUE,2,0.471556428,176,1,0.6,m,0.4219,,,,,,,,,,,,,,,,,,,,,,,,,,,,,,,,,
GOSH_A8,2023-11-10_09h57.45.336,two_step_task_legacy,2022.2.4,Win32,59.34718101,23,learning,1,TRUE,TRUE,2,0.751538399,purple,m,0,289,289,289,1,0.3,0.7,0.4,0.6,TRUE,resources/alien4_norm.png,0.6,resources/alien3_norm.png,0.4,0.2168,alien4,TRUE,3,0.670681605,176,0,0.6,x,0.3727,,,,,,,,,,,,,,,,,,,,,,,,,,,,,,,,,
