participant,date,expName,psychopyVersion,OS,frameRate,payoff_list,phase,rare_transition,left_alien,left_probabilty,right_alien,right_probabilty,select_sp,show_alien,rocket_trans,rand_sp,planet,key_resp_exp.keys,key_resp_exp.rt,chosen_alien,select_alien,transmoney,rand_money,totalgold,trialgain,probs,key_resp_exp_alien.keys,key_resp_exp_alien.rt,loop_exp.thisRepN,loop_exp.thisTrialN,loop_exp.thisN,loop_exp.thisIndex,loop_exp.ran,p1,p2,p3,p4,flip_sides,static_probability_left,static_probability_right,key_resp_probe.keys,key_resp_probe.rt,accuracy,probe_loop.thisRepN,probe_loop.thisTrialN,probe_loop.thisN,probe_loop.thisIndex,probe_loop.ran,probe_la,probe_ra,key_resp.keys,key_resp.rt,slider.response,slider.rt,post_loop.thisRepN,post_loop.thisTrialN,post_loop.thisN,post_loop.thisIndex,post_loop.ran,text_up,pos_text_up,text_down,pos_img_left_up,left_up_img,right_up_img,left_down_img_1,left_down_img_2,right_down_img_1,right_down_img_2,size,show_slider
GOSH_A15,2023-11-10_13h33.02.680,two_step_task_legacy,2022.2.4,Win32,60.34638827,,,,,,,,,,,,,,,,,,,,,,,,,,,,,,,,,,,,,,,,,,,,,,,,,,,,,,,,,,,,,,,,,,
GOSH_A15,2023-11-10_13h33.02.680,two_step_task_legacy,2022.2.4,Win32,60.34638827,,,,,,,,,,,,,,,,,,,,,,,,,,,,,,,,,,,,,,,,,,,,,,,,,,,,,,,,,,,,,,,,,,
GOSH_A15,2023-11-10_13h33.02.680,two_step_task_legacy,2022.2.4,Win32,60.34638827,,,,,,,,,,,,,,,,,,,,,,,,,,,,,,,,,,,,,,,,,,,,,,,,,,,,,,,,,,,,,,,,,,
GOSH_A15,2023-11-10_13h33.02.680,two_step_task_legacy,2022.2.4,Win32,60.34638827,,,,,,,,,,,,,,,,,,,,,,,,,,,,,,,,,,,,,,,,,,,,,,,,,,,,,,,,,,,,,,,,,,
GOSH_A15,2023-11-10_13h33.02.680,two_step_task_legacy,2022.2.4,Win32,60.34638827,,,,,,,,,,,,,,,,,,,,,,,,,,,,,,,,,,,,,,,,,,,,,,,,,,,,,,,,,,,,,,,,,,
GOSH_A15,2023-11-10_13h33.02.680,two_step_task_legacy,2022.2.4,Win32,60.34638827,,,,,,,,,,,,,,,,,,,,,,,,,,,,,,,,,,,,,,,,,,,,,,,,,,,,,,,,,,,,,,,,,,
GOSH_A15,2023-11-10_13h33.02.680,two_step_task_legacy,2022.2.4,Win32,60.34638827,,,,,,,,,,,,,,,,,,,,,,,,,,,,,,,,,,,,,,,,,,,,,,,,,,,,,,,,,,,,,,,,,,
GOSH_A15,2023-11-10_13h33.02.680,two_step_task_legacy,2022.2.4,Win32,60.34638827,,,,,,,,,,,,,,,,,,,,,,,,,,,,,,,,,,,,,,,,,,,,,,,,,,,,,,,,,,,,,,,,,,
GOSH_A15,2023-11-10_13h33.02.680,two_step_task_legacy,2022.2.4,Win32,60.34638827,,,,,,,,,,,,,,,,,,,,,,,,,,,,,,,,,,,,,,,,,,,,,,,,,,,,,,,,,,,,,,,,,,
GOSH_A15,2023-11-10_13h33.02.680,two_step_task_legacy,2022.2.4,Win32,60.34638827,,,,,,,,,,,,,,,,,,,,,,,,,,,,,,,,,,,,,,,,,,,,,,,,,,,,,,,,,,,,,,,,,,
GOSH_A15,2023-11-10_13h33.02.680,two_step_task_legacy,2022.2.4,Win32,60.34638827,,,,,,,,,,,,,,,,,,,,,,,,,,,,,,,,,,,,,,,,,,,,,,,,,,,,,,,,,,,,,,,,,,
GOSH_A15,2023-11-10_13h33.02.680,two_step_task_legacy,2022.2.4,Win32,60.34638827,11,learning,0,resources/alien1_norm.png,0.735004267,resources/alien2_norm.png,0.405760115,TRUE,TRUE,3,0.632960132,red,m,1.0434,alien1,TRUE,3,0.912444079,0,0,0.735004267,x,1.3953,0,0,0,0,1,0.735004267,0.405760115,0.463481854,0.281474585,FALSE,,,,,,,,,,,,,,,,,,,,,,,,,,,,,,,,,
GOSH_A15,2023-11-10_13h33.02.680,two_step_task_legacy,2022.2.4,Win32,60.34638827,11,learning,0,resources/alien2_norm.png,0.409498917,resources/alien1_norm.png,0.726648013,TRUE,TRUE,3,0.440602688,red,m,1.147,alien1,TRUE,3,0.794426122,0,0,0.726648013,m,0.39,0,1,1,1,1,0.726648013,0.409498917,0.470939609,0.277760257,TRUE,,,,,,,,,,,,,,,,,,,,,,,,,,,,,,,,,
GOSH_A15,2023-11-10_13h33.02.680,two_step_task_legacy,2022.2.4,Win32,60.34638827,11,learning,1,resources/alien3_norm.png,0.495843388,resources/alien4_norm.png,0.270517849,TRUE,TRUE,2,0.867255497,purple,m,0.4876,alien3,TRUE,3,0.983143202,0,0,0.495843388,x,1.1588,0,2,2,2,1,0.735612575,0.398886568,0.495843388,0.270517849,FALSE,,,,,,,,,,,,,,,,,,,,,,,,,,,,,,,,,
GOSH_A15,2023-11-10_13h33.02.680,two_step_task_legacy,2022.2.4,Win32,60.34638827,11,learning,0,resources/alien2_norm.png,0.379898073,resources/alien1_norm.png,0.739079361,TRUE,TRUE,3,0.328822189,red,m,0.5043,alien2,TRUE,3,0.594261434,0,0,0.379898073,x,0.8673,0,3,3,3,1,0.739079361,0.379898073,0.493294126,0.274263712,TRUE,,,,,,,,,,,,,,,,,,,,,,,,,,,,,,,,,
GOSH_A15,2023-11-10_13h33.02.680,two_step_task_legacy,2022.2.4,Win32,60.34638827,11,learning,0,resources/alien3_norm.png,0.530188502,resources/alien4_norm.png,0.288243949,TRUE,TRUE,2,0.609947003,purple,x,0.4863,alien4,TRUE,3,0.702494111,0,0,0.288243949,m,0.6107,0,4,4,4,1,0.732547828,0.358463113,0.530188502,0.288243949,FALSE,,,,,,,,,,,,,,,,,,,,,,,,,,,,,,,,,
GOSH_A15,2023-11-10_13h33.02.680,two_step_task_legacy,2022.2.4,Win32,60.34638827,11,learning,1,resources/alien3_norm.png,0.492907968,resources/alien4_norm.png,0.316009642,TRUE,TRUE,2,0.797564374,purple,m,0.5024,alien3,TRUE,3,0.897372556,0,0,0.492907968,x,1.6199,0,5,5,5,1,0.74071327,0.38268738,0.492907968,0.316009642,FALSE,,,,,,,,,,,,,,,,,,,,,,,,,,,,,,,,,
GOSH_A15,2023-11-10_13h33.02.680,two_step_task_legacy,2022.2.4,Win32,60.34638827,11,learning,0,resources/alien4_norm.png,0.29370718,resources/alien3_norm.png,0.454369038,TRUE,TRUE,2,0.529120169,purple,x,0.8787,alien3,TRUE,2,0.195317187,1,1,0.454369038,m,0.8922,0,6,6,6,1,0.741200658,0.410091306,0.454369038,0.29370718,TRUE,,,,,,,,,,,,,,,,,,,,,,,,,,,,,,,,,
GOSH_A15,2023-11-10_13h33.02.680,two_step_task_legacy,2022.2.4,Win32,60.34638827,11,learning,1,resources/alien2_norm.png,0.397919021,resources/alien1_norm.png,0.741158735,TRUE,TRUE,3,0.811182199,red,x,0.6344,alien2,TRUE,3,0.95067919,1,0,0.397919021,x,1.2761,0,7,7,7,1,0.741158735,0.397919021,0.436334861,0.322663367,TRUE,,,,,,,,,,,,,,,,,,,,,,,,,,,,,,,,,
GOSH_A15,2023-11-10_13h33.02.680,two_step_task_legacy,2022.2.4,Win32,60.34638827,11,learning,0,resources/alien2_norm.png,0.387561009,resources/alien1_norm.png,0.722024971,TRUE,TRUE,3,0.447638429,red,m,0.6461,alien1,TRUE,3,0.822922388,1,0,0.722024971,m,1.0427,0,8,8,8,1,0.722024971,0.387561009,0.426368741,0.321962032,TRUE,,,,,,,,,,,,,,,,,,,,,,,,,,,,,,,,,
GOSH_A15,2023-11-10_13h33.02.680,two_step_task_legacy,2022.2.4,Win32,60.34638827,11,learning,0,resources/alien4_norm.png,0.30699842,resources/alien3_norm.png,0.452344181,TRUE,TRUE,2,0.572473907,purple,x,1.8616,alien3,TRUE,3,0.504246086,1,0,0.452344181,m,0.6825,0,9,9,9,1,0.730172366,0.407348494,0.452344181,0.30699842,TRUE,,,,,,,,,,,,,,,,,,,,,,,,,,,,,,,,,
GOSH_A15,2023-11-10_13h33.02.680,two_step_task_legacy,2022.2.4,Win32,60.34638827,11,learning,0,resources/alien4_norm.png,0.253366353,resources/alien3_norm.png,0.428097866,TRUE,TRUE,2,0.599059766,purple,x,0.4446,alien4,TRUE,2,0.233954446,2,1,0.253366353,x,0.404,0,10,10,10,1,0.747999597,0.402942073,0.428097866,0.253366353,TRUE,,,,,,,,,,,,,,,,,,,,,,,,,,,,,,,,,
GOSH_A15,2023-11-10_13h33.02.680,two_step_task_legacy,2022.2.4,Win32,60.34638827,11,learning,0,resources/alien4_norm.png,0.285708472,resources/alien3_norm.png,0.407875273,TRUE,TRUE,2,0.220070315,purple,x,0.3213,alien4,TRUE,3,0.425625853,2,0,0.285708472,x,0.3544,0,11,11,11,1,0.721501316,0.406383509,0.407875273,0.285708472,TRUE,,,,,,,,,,,,,,,,,,,,,,,,,,,,,,,,,
GOSH_A15,2023-11-10_13h33.02.680,two_step_task_legacy,2022.2.4,Win32,60.34638827,11,learning,0,resources/alien1_norm.png,0.691834539,resources/alien2_norm.png,0.413377317,TRUE,TRUE,3,0.081849367,red,m,0.4401,alien2,TRUE,3,0.799883092,2,0,0.413377317,m,0.9591,0,12,12,12,1,0.691834539,0.413377317,0.409844896,0.300834026,FALSE,,,,,,,,,,,,,,,,,,,,,,,,,,,,,,,,,
GOSH_A15,2023-11-10_13h33.02.680,two_step_task_legacy,2022.2.4,Win32,60.34638827,11,learning,0,resources/alien3_norm.png,0.387071895,resources/alien4_norm.png,0.332412063,TRUE,TRUE,2,0.316428964,purple,x,0.4228,alien4,TRUE,2,0.309927085,3,1,0.332412063,m,0.9088,0,13,13,13,1,0.733698146,0.41342159,0.387071895,0.332412063,FALSE,,,,,,,,,,,,,,,,,,,,,,,,,,,,,,,,,
GOSH_A15,2023-11-10_13h33.02.680,two_step_task_legacy,2022.2.4,Win32,60.34638827,11,learning,1,resources/alien2_norm.png,0.403346101,resources/alien1_norm.png,0.698813213,TRUE,TRUE,3,0.799580315,red,x,0.3259,alien1,TRUE,2,0.275754663,4,1,0.698813213,m,1.2778,0,14,14,14,1,0.698813213,0.403346101,0.328671282,0.292973976,TRUE,,,,,,,,,,,,,,,,,,,,,,,,,,,,,,,,,
GOSH_A15,2023-11-10_13h33.02.680,two_step_task_legacy,2022.2.4,Win32,60.34638827,11,learning,0,resources/alien1_norm.png,0.673597567,resources/alien2_norm.png,0.40250225,TRUE,TRUE,3,0.15644534,red,m,0.4375,alien1,TRUE,2,0.29313578,5,1,0.673597567,x,0.5653,0,15,15,15,1,0.673597567,0.40250225,0.342113757,0.33043911,FALSE,,,,,,,,,,,,,,,,,,,,,,,,,,,,,,,,,
GOSH_A15,2023-11-10_13h33.02.680,two_step_task_legacy,2022.2.4,Win32,60.34638827,11,learning,0,resources/alien2_norm.png,0.424573709,resources/alien1_norm.png,0.680184118,TRUE,TRUE,3,0.044822503,red,m,0.3905,alien1,TRUE,2,0.006744892,6,1,0.680184118,m,0.5952,0,16,16,16,1,0.680184118,0.424573709,0.346400472,0.338837976,TRUE,,,,,,,,,,,,,,,,,,,,,,,,,,,,,,,,,
GOSH_A15,2023-11-10_13h33.02.680,two_step_task_legacy,2022.2.4,Win32,60.34638827,11,learning,0,resources/alien1_norm.png,0.695581347,resources/alien2_norm.png,0.425223256,TRUE,TRUE,3,0.477846675,red,m,0.3665,alien1,TRUE,2,0.67481647,7,1,0.695581347,x,0.4892,0,17,17,17,1,0.695581347,0.425223256,0.33217653,0.308440183,FALSE,,,,,,,,,,,,,,,,,,,,,,,,,,,,,,,,,
GOSH_A15,2023-11-10_13h33.02.680,two_step_task_legacy,2022.2.4,Win32,60.34638827,11,learning,0,resources/alien1_norm.png,0.665279829,resources/alien2_norm.png,0.395443845,TRUE,TRUE,3,0.625039394,red,m,0.3727,alien1,TRUE,3,0.997078771,7,0,0.665279829,x,0.3676,0,18,18,18,1,0.665279829,0.395443845,0.385355991,0.307336406,FALSE,,,,,,,,,,,,,,,,,,,,,,,,,,,,,,,,,
GOSH_A15,2023-11-10_13h33.02.680,two_step_task_legacy,2022.2.4,Win32,60.34638827,11,learning,0,resources/alien3_norm.png,0.401923143,resources/alien4_norm.png,0.290351741,TRUE,TRUE,2,0.250572815,purple,x,0.3011,alien4,TRUE,3,0.435383894,7,0,0.290351741,m,0.6096,0,19,19,19,1,0.661411279,0.435220861,0.401923143,0.290351741,FALSE,,,,,,,,,,,,,,,,,,,,,,,,,,,,,,,,,
GOSH_A15,2023-11-10_13h33.02.680,two_step_task_legacy,2022.2.4,Win32,60.34638827,11,learning,0,resources/alien3_norm.png,0.398249836,resources/alien4_norm.png,0.271196954,TRUE,TRUE,2,0.194531932,purple,x,0.3315,alien3,TRUE,3,0.910805907,7,0,0.398249836,x,0.4612,0,20,20,20,1,0.661949138,0.410912611,0.398249836,0.271196954,FALSE,,,,,,,,,,,,,,,,,,,,,,,,,,,,,,,,,
GOSH_A15,2023-11-10_13h33.02.680,two_step_task_legacy,2022.2.4,Win32,60.34638827,11,learning,1,resources/alien3_norm.png,0.415225809,resources/alien4_norm.png,0.252366339,TRUE,TRUE,2,0.820855265,purple,m,0.3842,alien4,TRUE,3,0.485799584,7,0,0.252366339,m,1.2631,0,21,21,21,1,0.654233993,0.43410913,0.415225809,0.252366339,FALSE,,,,,,,,,,,,,,,,,,,,,,,,,,,,,,,,,
GOSH_A15,2023-11-10_13h33.02.680,two_step_task_legacy,2022.2.4,Win32,60.34638827,11,learning,0,resources/alien2_norm.png,0.388227855,resources/alien1_norm.png,0.67678513,TRUE,TRUE,3,0.442438706,red,m,0.35,alien2,TRUE,2,0.097646604,8,1,0.388227855,x,0.8765,0,22,22,22,1,0.67678513,0.388227855,0.452186207,0.287515569,TRUE,,,,,,,,,,,,,,,,,,,,,,,,,,,,,,,,,
GOSH_A15,2023-11-10_13h33.02.680,two_step_task_legacy,2022.2.4,Win32,60.34638827,11,learning,0,resources/alien2_norm.png,0.389511366,resources/alien1_norm.png,0.659885743,TRUE,TRUE,3,0.341909795,red,m,0.4446,alien2,TRUE,2,0.25001169,9,1,0.389511366,x,0.3739,0,23,23,23,1,0.659885743,0.389511366,0.461093342,0.271854671,TRUE,,,,,,,,,,,,,,,,,,,,,,,,,,,,,,,,,
GOSH_A15,2023-11-10_13h33.02.680,two_step_task_legacy,2022.2.4,Win32,60.34638827,11,learning,1,resources/alien4_norm.png,0.265652547,resources/alien3_norm.png,0.449009712,TRUE,TRUE,2,0.797346337,purple,m,0.2783,alien4,TRUE,2,0.189343063,10,1,0.265652547,x,0.3173,0,24,24,24,1,0.666068018,0.398800031,0.449009712,0.265652547,TRUE,,,,,,,,,,,,,,,,,,,,,,,,,,,,,,,,,
GOSH_A15,2023-11-10_13h33.02.680,two_step_task_legacy,2022.2.4,Win32,60.34638827,11,learning,0,resources/alien4_norm.png,0.25034404,resources/alien3_norm.png,0.452565344,TRUE,TRUE,2,0.497349919,purple,x,0.3646,alien4,TRUE,3,0.552503915,10,0,0.25034404,x,0.351,0,25,25,25,1,0.693855048,0.413573954,0.452565344,0.25034404,TRUE,,,,,,,,,,,,,,,,,,,,,,,,,,,,,,,,,
GOSH_A15,2023-11-10_13h33.02.680,two_step_task_legacy,2022.2.4,Win32,60.34638827,11,learning,0,resources/alien4_norm.png,0.257320124,resources/alien3_norm.png,0.440419535,TRUE,TRUE,2,0.679410979,purple,x,0.6276,alien4,TRUE,3,0.877426714,10,0,0.257320124,x,0.3236,0,26,26,26,1,0.665387551,0.433242785,0.440419535,0.257320124,TRUE,,,,,,,,,,,,,,,,,,,,,,,,,,,,,,,,,
GOSH_A15,2023-11-10_13h33.02.680,two_step_task_legacy,2022.2.4,Win32,60.34638827,11,learning,0,resources/alien2_norm.png,0.448773815,resources/alien1_norm.png,0.636497297,TRUE,TRUE,3,0.22466963,red,m,0.305,alien2,TRUE,3,0.993147987,10,0,0.448773815,x,0.91,0,27,27,27,1,0.636497297,0.448773815,0.415619749,0.254034703,TRUE,,,,,,,,,,,,,,,,,,,,,,,,,,,,,,,,,
GOSH_A15,2023-11-10_13h33.02.680,two_step_task_legacy,2022.2.4,Win32,60.34638827,11,learning,1,resources/alien4_norm.png,0.268687372,resources/alien3_norm.png,0.383697745,TRUE,TRUE,2,0.919318458,purple,m,0.4632,alien3,TRUE,3,0.501191566,10,0,0.383697745,m,0.8836,0,28,28,28,1,0.638994832,0.429405459,0.383697745,0.268687372,TRUE,,,,,,,,,,,,,,,,,,,,,,,,,,,,,,,,,
GOSH_A15,2023-11-10_13h33.02.680,two_step_task_legacy,2022.2.4,Win32,60.34638827,11,learning,0,resources/alien2_norm.png,0.410940076,resources/alien1_norm.png,0.578130636,TRUE,TRUE,3,0.203402444,red,m,0.4504,alien1,TRUE,2,0.503572965,11,1,0.578130636,m,0.573,0,29,29,29,1,0.578130636,0.410940076,0.385779103,0.269139552,TRUE,,,,,,,,,,,,,,,,,,,,,,,,,,,,,,,,,
GOSH_A15,2023-11-10_13h33.02.680,two_step_task_legacy,2022.2.4,Win32,60.34638827,11,learning,1,resources/alien4_norm.png,0.274735338,resources/alien3_norm.png,0.457376883,TRUE,TRUE,2,0.771824413,purple,m,0.4228,alien4,TRUE,3,0.54870734,11,0,0.274735338,x,1.1192,0,30,30,30,1,0.547015321,0.431141489,0.457376883,0.274735338,TRUE,,,,,,,,,,,,,,,,,,,,,,,,,,,,,,,,,
GOSH_A15,2023-11-10_13h33.02.680,two_step_task_legacy,2022.2.4,Win32,60.34638827,11,learning,0,resources/alien2_norm.png,0.476757946,resources/alien1_norm.png,0.489685474,TRUE,TRUE,3,0.640011896,red,m,0.8791,alien1,TRUE,2,0.193805232,12,1,0.489685474,m,0.5991,0,31,31,31,1,0.489685474,0.476757946,0.460317929,0.260113935,TRUE,,,,,,,,,,,,,,,,,,,,,,,,,,,,,,,,,
GOSH_A15,2023-11-10_13h33.02.680,two_step_task_legacy,2022.2.4,Win32,60.34638827,11,learning,0,resources/alien2_norm.png,0.47271727,resources/alien1_norm.png,0.536848324,TRUE,TRUE,3,0.541153065,red,m,0.3114,alien1,TRUE,2,0.371658401,13,1,0.536848324,m,0.401,0,32,32,32,1,0.536848324,0.47271727,0.462294434,0.27332593,TRUE,,,,,,,,,,,,,,,,,,,,,,,,,,,,,,,,,
GOSH_A15,2023-11-10_13h33.02.680,two_step_task_legacy,2022.2.4,Win32,60.34638827,11,learning,0,resources/alien1_norm.png,0.551396021,resources/alien2_norm.png,0.483591319,TRUE,TRUE,3,0.512192409,red,m,0.2477,alien1,TRUE,2,0.239314661,14,1,0.551396021,x,0.6949,0,33,33,33,1,0.551396021,0.483591319,0.506024589,0.282754269,FALSE,,,,,,,,,,,,,,,,,,,,,,,,,,,,,,,,,
GOSH_A15,2023-11-10_13h33.02.680,two_step_task_legacy,2022.2.4,Win32,60.34638827,11,learning,0,resources/alien2_norm.png,0.470837367,resources/alien1_norm.png,0.512254452,TRUE,TRUE,3,0.635657562,red,m,0.4366,alien1,TRUE,2,0.065761752,15,1,0.512254452,m,0.5624,0,34,34,34,1,0.512254452,0.470837367,0.457029769,0.269186602,TRUE,,,,,,,,,,,,,,,,,,,,,,,,,,,,,,,,,
GOSH_A15,2023-11-10_13h33.02.680,two_step_task_legacy,2022.2.4,Win32,60.34638827,11,learning,0,resources/alien1_norm.png,0.491662308,resources/alien2_norm.png,0.465775001,TRUE,TRUE,3,0.626511225,red,m,0.3314,alien1,TRUE,2,0.081936317,16,1,0.491662308,x,0.4906,0,35,35,35,1,0.491662308,0.465775001,0.447420114,0.265710056,FALSE,,,,,,,,,,,,,,,,,,,,,,,,,,,,,,,,,
GOSH_A15,2023-11-10_13h33.02.680,two_step_task_legacy,2022.2.4,Win32,60.34638827,11,learning,1,resources/alien4_norm.png,0.25827737,resources/alien3_norm.png,0.428082592,TRUE,TRUE,2,0.831452653,purple,m,0.3105,alien4,TRUE,2,0.213665958,17,1,0.25827737,x,0.9493,0,36,36,36,1,0.493384941,0.411646758,0.428082592,0.25827737,TRUE,,,,,,,,,,,,,,,,,,,,,,,,,,,,,,,,,
GOSH_A15,2023-11-10_13h33.02.680,two_step_task_legacy,2022.2.4,Win32,60.34638827,11,learning,0,resources/alien4_norm.png,0.27590428,resources/alien3_norm.png,0.373204395,TRUE,TRUE,2,0.308830819,purple,x,0.3038,alien4,TRUE,2,0.018425642,18,1,0.27590428,x,0.3873,0,37,37,37,1,0.493769778,0.429699634,0.373204395,0.27590428,TRUE,,,,,,,,,,,,,,,,,,,,,,,,,,,,,,,,,
GOSH_A15,2023-11-10_13h33.02.680,two_step_task_legacy,2022.2.4,Win32,60.34638827,11,learning,0,resources/alien4_norm.png,0.280094663,resources/alien3_norm.png,0.347691188,TRUE,TRUE,2,0.505086636,purple,x,0.279,alien4,TRUE,2,0.05127484,19,1,0.280094663,x,0.4504,0,38,38,38,1,0.466597382,0.413411606,0.347691188,0.280094663,TRUE,,,,,,,,,,,,,,,,,,,,,,,,,,,,,,,,,
GOSH_A15,2023-11-10_13h33.02.680,two_step_task_legacy,2022.2.4,Win32,60.34638827,11,learning,1,resources/alien1_norm.png,0.505923327,resources/alien2_norm.png,0.411869078,TRUE,TRUE,3,0.838490767,red,x,0.3607,alien2,TRUE,3,0.677543934,19,0,0.411869078,m,1.1103,0,39,39,39,1,0.505923327,0.411869078,0.322095757,0.339573972,FALSE,,,,,,,,,,,,,,,,,,,,,,,,,,,,,,,,,
GOSH_A15,2023-11-10_13h33.02.680,two_step_task_legacy,2022.2.4,Win32,60.34638827,11,learning,0,resources/alien4_norm.png,0.358756435,resources/alien3_norm.png,0.322962358,TRUE,TRUE,2,0.557148929,purple,x,0.768,alien4,TRUE,3,0.395965967,19,0,0.358756435,x,0.8617,0,40,40,40,1,0.516666368,0.417303574,0.322962358,0.358756435,TRUE,,,,,,,,,,,,,,,,,,,,,,,,,,,,,,,,,
GOSH_A15,2023-11-10_13h33.02.680,two_step_task_legacy,2022.2.4,Win32,60.34638827,11,learning,1,resources/alien4_norm.png,0.357938031,resources/alien3_norm.png,0.294911851,TRUE,TRUE,2,0.989835869,purple,m,0.7564,alien3,TRUE,3,0.85143605,19,0,0.294911851,m,1.1712,0,41,41,41,1,0.550750768,0.444104911,0.294911851,0.357938031,TRUE,,,,,,,,,,,,,,,,,,,,,,,,,,,,,,,,,
GOSH_A15,2023-11-10_13h33.02.680,two_step_task_legacy,2022.2.4,Win32,60.34638827,11,learning,0,resources/alien2_norm.png,0.485191645,resources/alien1_norm.png,0.525571539,TRUE,TRUE,3,0.299454022,red,m,0.4903,alien1,TRUE,2,0.346839881,20,1,0.525571539,m,0.8575,0,42,42,42,1,0.525571539,0.485191645,0.308104121,0.339040206,TRUE,,,,,,,,,,,,,,,,,,,,,,,,,,,,,,,,,
GOSH_A15,2023-11-10_13h33.02.680,two_step_task_legacy,2022.2.4,Win32,60.34638827,11,learning,0,resources/alien2_norm.png,0.481454084,resources/alien1_norm.png,0.50426409,TRUE,TRUE,3,0.482503943,red,m,0.5342,alien1,TRUE,3,0.51500006,20,0,0.50426409,m,0.3697,0,43,43,43,1,0.50426409,0.481454084,0.326958644,0.333505879,TRUE,,,,,,,,,,,,,,,,,,,,,,,,,,,,,,,,,
GOSH_A15,2023-11-10_13h33.02.680,two_step_task_legacy,2022.2.4,Win32,60.34638827,11,learning,0,resources/alien1_norm.png,0.481265357,resources/alien2_norm.png,0.499315814,TRUE,TRUE,3,0.376240205,red,m,0.506,alien1,TRUE,3,0.561621359,20,0,0.481265357,x,0.4746,0,44,44,44,1,0.481265357,0.499315814,0.356507974,0.323735934,FALSE,,,,,,,,,,,,,,,,,,,,,,,,,,,,,,,,,
GOSH_A15,2023-11-10_13h33.02.680,two_step_task_legacy,2022.2.4,Win32,60.34638827,11,learning,1,resources/alien3_norm.png,0.357876875,resources/alien4_norm.png,0.290739862,TRUE,TRUE,2,0.703072591,purple,m,0.6334,alien4,TRUE,3,0.754955291,20,0,0.290739862,m,1.3032,0,45,45,45,1,0.522309201,0.536711439,0.357876875,0.290739862,FALSE,,,,,,,,,,,,,,,,,,,,,,,,,,,,,,,,,
GOSH_A15,2023-11-10_13h33.02.680,two_step_task_legacy,2022.2.4,Win32,60.34638827,11,learning,1,resources/alien3_norm.png,0.360329221,resources/alien4_norm.png,0.278991374,TRUE,TRUE,2,0.86562892,purple,m,0.4014,alien3,TRUE,2,0.091826921,21,1,0.360329221,x,0.7711,0,46,46,46,1,0.496462145,0.50305264,0.360329221,0.278991374,FALSE,,,,,,,,,,,,,,,,,,,,,,,,,,,,,,,,,
GOSH_A15,2023-11-10_13h33.02.680,two_step_task_legacy,2022.2.4,Win32,60.34638827,11,learning,0,resources/alien4_norm.png,0.305174823,resources/alien3_norm.png,0.343718868,TRUE,TRUE,2,0.504409229,purple,x,0.321,alien3,TRUE,2,0.116360014,22,1,0.343718868,m,0.583,0,47,47,47,1,0.493644531,0.485086755,0.343718868,0.305174823,TRUE,,,,,,,,,,,,,,,,,,,,,,,,,,,,,,,,,
GOSH_A15,2023-11-10_13h33.02.680,two_step_task_legacy,2022.2.4,Win32,60.34638827,11,learning,0,resources/alien4_norm.png,0.31787677,resources/alien3_norm.png,0.345401109,TRUE,TRUE,2,0.255653961,purple,x,0.3063,alien3,TRUE,3,0.879863708,22,0,0.345401109,m,0.5921,0,48,48,48,1,0.491945355,0.483205309,0.345401109,0.31787677,TRUE,,,,,,,,,,,,,,,,,,,,,,,,,,,,,,,,,
GOSH_A15,2023-11-10_13h33.02.680,two_step_task_legacy,2022.2.4,Win32,60.34638827,11,learning,0,resources/alien2_norm.png,0.502991622,resources/alien1_norm.png,0.517740593,TRUE,TRUE,3,0.099169698,red,m,0.495,alien2,TRUE,2,0.232251497,23,1,0.502991622,x,0.4203,0,49,49,49,1,0.517740593,0.502991622,0.373728587,0.277022005,TRUE,,,,,,,,,,,,,,,,,,,,,,,,,,,,,,,,,
GOSH_A15,2023-11-10_13h33.02.680,two_step_task_legacy,2022.2.4,Win32,60.34638827,11,learning,0,resources/alien1_norm.png,0.520150615,resources/alien2_norm.png,0.50684998,TRUE,TRUE,3,0.639629186,red,m,0.3705,alien2,TRUE,3,0.600779415,23,0,0.50684998,m,0.5372,0,50,50,50,1,0.520150615,0.50684998,0.348397501,0.270042045,FALSE,,,,,,,,,,,,,,,,,,,,,,,,,,,,,,,,,
GOSH_A15,2023-11-10_13h33.02.680,two_step_task_legacy,2022.2.4,Win32,60.34638827,11,learning,0,resources/alien4_norm.png,0.255023094,resources/alien3_norm.png,0.402425342,TRUE,TRUE,2,0.048702265,purple,x,0.7752,alien4,TRUE,3,0.525195369,23,0,0.255023094,x,0.9812,0,51,51,51,1,0.5351946,0.526013812,0.402425342,0.255023094,TRUE,,,,,,,,,,,,,,,,,,,,,,,,,,,,,,,,,
GOSH_A15,2023-11-10_13h33.02.680,two_step_task_legacy,2022.2.4,Win32,60.34638827,11,learning,0,resources/alien4_norm.png,0.287660245,resources/alien3_norm.png,0.405415746,TRUE,TRUE,2,0.020360179,purple,x,1.0124,alien3,TRUE,3,0.790053878,23,0,0.405415746,m,0.4003,0,52,52,52,1,0.566527291,0.531253596,0.405415746,0.287660245,TRUE,,,,,,,,,,,,,,,,,,,,,,,,,,,,,,,,,
GOSH_A15,2023-11-10_13h33.02.680,two_step_task_legacy,2022.2.4,Win32,60.34638827,11,learning,1,resources/alien3_norm.png,0.38709589,resources/alien4_norm.png,0.304407373,TRUE,TRUE,2,0.783686522,purple,m,0.3861,alien4,TRUE,2,0.037409668,24,1,0.304407373,m,1.393,0,53,53,53,1,0.573303228,0.504003796,0.38709589,0.304407373,FALSE,,,,,,,,,,,,,,,,,,,,,,,,,,,,,,,,,
GOSH_A15,2023-11-10_13h33.02.680,two_step_task_legacy,2022.2.4,Win32,60.34638827,11,learning,0,resources/alien4_norm.png,0.316597135,resources/alien3_norm.png,0.383678743,TRUE,TRUE,2,0.138113604,purple,x,0.4253,alien4,TRUE,3,0.497865717,24,0,0.316597135,x,0.5289,0,54,54,54,1,0.600344675,0.525650001,0.383678743,0.316597135,TRUE,,,,,,,,,,,,,,,,,,,,,,,,,,,,,,,,,
GOSH_A15,2023-11-10_13h33.02.680,two_step_task_legacy,2022.2.4,Win32,60.34638827,11,learning,1,resources/alien2_norm.png,0.507899843,resources/alien1_norm.png,0.595996806,TRUE,TRUE,3,0.704311479,red,x,0.8846,alien2,TRUE,3,0.687291788,24,0,0.507899843,x,1.3165,0,55,55,55,1,0.595996806,0.507899843,0.36987251,0.257280936,TRUE,,,,,,,,,,,,,,,,,,,,,,,,,,,,,,,,,
GOSH_A15,2023-11-10_13h33.02.680,two_step_task_legacy,2022.2.4,Win32,60.34638827,11,learning,0,resources/alien4_norm.png,0.271589073,resources/alien3_norm.png,0.407284747,TRUE,TRUE,2,0.216634652,purple,x,0.3686,alien4,TRUE,3,0.526432171,24,0,0.271589073,x,1.3228,0,56,56,56,1,0.582664231,0.449466026,0.407284747,0.271589073,TRUE,,,,,,,,,,,,,,,,,,,,,,,,,,,,,,,,,
GOSH_A15,2023-11-10_13h33.02.680,two_step_task_legacy,2022.2.4,Win32,60.34638827,11,learning,0,resources/alien1_norm.png,0.538753325,resources/alien2_norm.png,0.438069661,TRUE,TRUE,3,0.46638355,red,m,0.4872,alien1,TRUE,3,0.738871968,24,0,0.538753325,x,0.8433,0,57,57,57,1,0.538753325,0.438069661,0.421476831,0.259809431,FALSE,,,,,,,,,,,,,,,,,,,,,,,,,,,,,,,,,
GOSH_A15,2023-11-10_13h33.02.680,two_step_task_legacy,2022.2.4,Win32,60.34638827,11,learning,0,resources/alien1_norm.png,0.542473982,resources/alien2_norm.png,0.419697183,TRUE,TRUE,3,0.542238385,red,m,0.4065,alien1,TRUE,2,0.481567776,25,1,0.542473982,x,0.9088,0,58,58,58,1,0.542473982,0.419697183,0.440081302,0.268303514,FALSE,,,,,,,,,,,,,,,,,,,,,,,,,,,,,,,,,
GOSH_A15,2023-11-10_13h33.02.680,two_step_task_legacy,2022.2.4,Win32,60.34638827,11,learning,0,resources/alien2_norm.png,0.450393207,resources/alien1_norm.png,0.564082304,TRUE,TRUE,3,0.282432523,red,m,0.323,alien1,TRUE,3,0.778682465,25,0,0.564082304,m,0.5559,0,59,59,59,1,0.564082304,0.450393207,0.498884326,0.280957594,TRUE,,,,,,,,,,,,,,,,,,,,,,,,,,,,,,,,,
GOSH_A15,2023-11-10_13h33.02.680,two_step_task_legacy,2022.2.4,Win32,60.34638827,11,learning,0,resources/alien3_norm.png,0.512334178,resources/alien4_norm.png,0.29816981,TRUE,TRUE,2,0.268612241,purple,x,0.3508,alien3,TRUE,2,0.119330599,26,1,0.512334178,x,1.0216,0,60,60,60,1,0.53981291,0.437230037,0.512334178,0.29816981,FALSE,,,,,,,,,,,,,,,,,,,,,,,,,,,,,,,,,
GOSH_A15,2023-11-10_13h33.02.680,two_step_task_legacy,2022.2.4,Win32,60.34638827,11,learning,0,resources/alien4_norm.png,0.300398038,resources/alien3_norm.png,0.493255749,TRUE,TRUE,2,0.021789357,purple,x,0.3819,alien3,TRUE,2,0.401994049,27,1,0.493255749,m,0.5676,0,61,61,61,1,0.542198582,0.408523574,0.493255749,0.300398038,TRUE,,,,,,,,,,,,,,,,,,,,,,,,,,,,,,,,,
GOSH_A15,2023-11-10_13h33.02.680,two_step_task_legacy,2022.2.4,Win32,60.34638827,11,learning,0,resources/alien3_norm.png,0.455736393,resources/alien4_norm.png,0.328365954,TRUE,TRUE,2,0.178301967,purple,x,0.2935,alien3,TRUE,2,0.151346854,28,1,0.455736393,x,0.4582,0,62,62,62,1,0.553400411,0.411077926,0.455736393,0.328365954,FALSE,,,,,,,,,,,,,,,,,,,,,,,,,,,,,,,,,
GOSH_A15,2023-11-10_13h33.02.680,two_step_task_legacy,2022.2.4,Win32,60.34638827,11,learning,0,resources/alien4_norm.png,0.296052257,resources/alien3_norm.png,0.43085802,TRUE,TRUE,2,0.211673407,purple,x,0.3864,alien3,TRUE,3,0.970823992,28,0,0.43085802,m,0.4557,0,63,63,63,1,0.532091217,0.406019514,0.43085802,0.296052257,TRUE,,,,,,,,,,,,,,,,,,,,,,,,,,,,,,,,,
GOSH_A15,2023-11-10_13h33.02.680,two_step_task_legacy,2022.2.4,Win32,60.34638827,11,learning,1,resources/alien2_norm.png,0.402954101,resources/alien1_norm.png,0.528556267,TRUE,TRUE,3,0.886768779,red,x,0.283,alien2,TRUE,3,0.641674269,28,0,0.402954101,x,0.9856,0,64,64,64,1,0.528556267,0.402954101,0.431770405,0.308549713,TRUE,,,,,,,,,,,,,,,,,,,,,,,,,,,,,,,,,
GOSH_A15,2023-11-10_13h33.02.680,two_step_task_legacy,2022.2.4,Win32,60.34638827,11,learning,0,resources/alien1_norm.png,0.530871421,resources/alien2_norm.png,0.378496771,TRUE,TRUE,3,0.567286353,red,m,0.3222,alien1,TRUE,2,0.377845566,29,1,0.530871421,x,0.6207,0,65,65,65,1,0.530871421,0.378496771,0.408306448,0.335566259,FALSE,,,,,,,,,,,,,,,,,,,,,,,,,,,,,,,,,
GOSH_A15,2023-11-10_13h33.02.680,two_step_task_legacy,2022.2.4,Win32,60.34638827,11,learning,0,resources/alien1_norm.png,0.570239628,resources/alien2_norm.png,0.420658115,TRUE,TRUE,3,0.460393133,red,m,0.4101,alien1,TRUE,2,0.266561427,30,1,0.570239628,x,0.45,0,66,66,66,1,0.570239628,0.420658115,0.436013766,0.323734119,FALSE,,,,,,,,,,,,,,,,,,,,,,,,,,,,,,,,,
GOSH_A15,2023-11-10_13h33.02.680,two_step_task_legacy,2022.2.4,Win32,60.34638827,11,learning,1,resources/alien4_norm.png,0.315556681,resources/alien3_norm.png,0.453792841,TRUE,TRUE,2,0.701060118,purple,m,0.2806,alien3,TRUE,3,0.939465765,30,0,0.453792841,m,1.0229,0,67,67,67,1,0.591449475,0.448762809,0.453792841,0.315556681,TRUE,,,,,,,,,,,,,,,,,,,,,,,,,,,,,,,,,
GOSH_A15,2023-11-10_13h33.02.680,two_step_task_legacy,2022.2.4,Win32,60.34638827,11,learning,0,resources/alien1_norm.png,0.563331053,resources/alien2_norm.png,0.474234796,TRUE,TRUE,3,0.018498692,red,m,0.2894,alien1,TRUE,2,0.035019396,31,1,0.563331053,x,0.4166,0,68,68,68,1,0.563331053,0.474234796,0.441660247,0.298122992,FALSE,,,,,,,,,,,,,,,,,,,,,,,,,,,,,,,,,
GOSH_A15,2023-11-10_13h33.02.680,two_step_task_legacy,2022.2.4,Win32,60.34638827,11,learning,0,resources/alien1_norm.png,0.563152249,resources/alien2_norm.png,0.437253036,TRUE,TRUE,3,0.357335131,red,m,0.4175,alien1,TRUE,3,0.643362876,31,0,0.563152249,x,0.3994,0,69,69,69,1,0.563152249,0.437253036,0.404262068,0.291150742,FALSE,,,,,,,,,,,,,,,,,,,,,,,,,,,,,,,,,
GOSH_A15,2023-11-10_13h33.02.680,two_step_task_legacy,2022.2.4,Win32,60.34638827,11,learning,0,resources/alien1_norm.png,0.552683953,resources/alien2_norm.png,0.464935753,TRUE,TRUE,3,0.617433236,red,m,0.2977,alien1,TRUE,2,0.34162455,32,1,0.552683953,x,0.4166,0,70,70,70,1,0.552683953,0.464935753,0.444846811,0.309207509,FALSE,,,,,,,,,,,,,,,,,,,,,,,,,,,,,,,,,
GOSH_A15,2023-11-10_13h33.02.680,two_step_task_legacy,2022.2.4,Win32,60.34638827,11,learning,0,resources/alien1_norm.png,0.533608205,resources/alien2_norm.png,0.481614969,TRUE,TRUE,3,0.283629716,red,m,0.2614,alien1,TRUE,2,0.457902839,33,1,0.533608205,x,0.3824,0,71,71,71,1,0.533608205,0.481614969,0.463570435,0.323545862,FALSE,,,,,,,,,,,,,,,,,,,,,,,,,,,,,,,,,
GOSH_A15,2023-11-10_13h33.02.680,two_step_task_legacy,2022.2.4,Win32,60.34638827,11,learning,1,resources/alien4_norm.png,0.26823201,resources/alien3_norm.png,0.465009016,TRUE,TRUE,2,0.730873051,purple,m,0.2722,alien3,TRUE,3,0.755964883,33,0,0.465009016,m,1.1562,0,72,72,72,1,0.535548537,0.474561818,0.465009016,0.26823201,TRUE,,,,,,,,,,,,,,,,,,,,,,,,,,,,,,,,,
GOSH_A15,2023-11-10_13h33.02.680,two_step_task_legacy,2022.2.4,Win32,60.34638827,11,learning,0,resources/alien2_norm.png,0.440801261,resources/alien1_norm.png,0.542768918,TRUE,TRUE,3,0.107021854,red,m,0.4269,alien1,TRUE,3,0.813954358,33,0,0.542768918,m,0.8001,0,73,73,73,1,0.542768918,0.440801261,0.436372984,0.260372941,TRUE,,,,,,,,,,,,,,,,,,,,,,,,,,,,,,,,,
GOSH_A15,2023-11-10_13h33.02.680,two_step_task_legacy,2022.2.4,Win32,60.34638827,11,learning,0,resources/alien1_norm.png,0.560222004,resources/alien2_norm.png,0.423159054,TRUE,TRUE,3,0.005115007,red,m,1.0908,alien2,TRUE,3,0.744552545,33,0,0.423159054,m,0.9504,0,74,74,74,1,0.560222004,0.423159054,0.458779651,0.260758683,FALSE,,,,,,,,,,,,,,,,,,,,,,,,,,,,,,,,,
GOSH_A15,2023-11-10_13h33.02.680,two_step_task_legacy,2022.2.4,Win32,60.34638827,11,learning,0,resources/alien4_norm.png,0.257379297,resources/alien3_norm.png,0.455266135,TRUE,TRUE,2,0.351346123,purple,x,0.3735,alien4,TRUE,3,0.96882607,33,0,0.257379297,x,1.0053,0,75,75,75,1,0.539174426,0.448163788,0.455266135,0.257379297,TRUE,,,,,,,,,,,,,,,,,,,,,,,,,,,,,,,,,
GOSH_A15,2023-11-10_13h33.02.680,two_step_task_legacy,2022.2.4,Win32,60.34638827,11,learning,1,resources/alien2_norm.png,0.478471932,resources/alien1_norm.png,0.537408479,TRUE,TRUE,3,0.852604447,red,x,0.4948,alien1,TRUE,2,0.042450805,34,1,0.537408479,m,1.7176,0,76,76,76,1,0.537408479,0.478471932,0.420217761,0.270596693,TRUE,,,,,,,,,,,,,,,,,,,,,,,,,,,,,,,,,
GOSH_A15,2023-11-10_13h33.02.680,two_step_task_legacy,2022.2.4,Win32,60.34638827,11,learning,0,resources/alien1_norm.png,0.512388297,resources/alien2_norm.png,0.457419685,TRUE,TRUE,3,0.347832386,red,m,0.3811,alien1,TRUE,2,0.338767769,35,1,0.512388297,x,0.5339,0,77,77,77,1,0.512388297,0.457419685,0.409778881,0.277037121,FALSE,,,,,,,,,,,,,,,,,,,,,,,,,,,,,,,,,
GOSH_A15,2023-11-10_13h33.02.680,two_step_task_legacy,2022.2.4,Win32,60.34638827,11,learning,0,resources/alien1_norm.png,0.489858931,resources/alien2_norm.png,0.466419283,TRUE,TRUE,3,0.653642614,red,m,0.3331,alien1,TRUE,3,0.777601625,35,0,0.489858931,x,0.4174,0,78,78,78,1,0.489858931,0.466419283,0.372565236,0.270516911,FALSE,,,,,,,,,,,,,,,,,,,,,,,,,,,,,,,,,
GOSH_A15,2023-11-10_13h33.02.680,two_step_task_legacy,2022.2.4,Win32,60.34638827,11,learning,0,resources/alien2_norm.png,0.466375344,resources/alien1_norm.png,0.540816343,TRUE,TRUE,3,0.270176667,red,m,0.3336,alien1,TRUE,3,0.962315614,35,0,0.540816343,m,0.5711,0,79,79,79,1,0.540816343,0.466375344,0.390463231,0.262603515,TRUE,,,,,,,,,,,,,,,,,,,,,,,,,,,,,,,,,
GOSH_A15,2023-11-10_13h33.02.680,two_step_task_legacy,2022.2.4,Win32,60.34638827,11,learning,0,resources/alien1_norm.png,0.506499763,resources/alien2_norm.png,0.477354251,TRUE,TRUE,3,0.532939462,red,m,0.508,alien2,TRUE,3,0.697890258,35,0,0.477354251,m,0.8346,0,80,80,80,1,0.506499763,0.477354251,0.380539765,0.268738173,FALSE,,,,,,,,,,,,,,,,,,,,,,,,,,,,,,,,,
GOSH_A15,2023-11-10_13h33.02.680,two_step_task_legacy,2022.2.4,Win32,60.34638827,11,learning,0,resources/alien3_norm.png,0.37781899,resources/alien4_norm.png,0.278779841,TRUE,TRUE,2,0.208453782,purple,x,0.3203,alien4,TRUE,3,0.424181333,35,0,0.278779841,m,0.831,0,81,81,81,1,0.509536953,0.486946319,0.37781899,0.278779841,FALSE,,,,,,,,,,,,,,,,,,,,,,,,,,,,,,,,,
GOSH_A15,2023-11-10_13h33.02.680,two_step_task_legacy,2022.2.4,Win32,60.34638827,11,learning,1,resources/alien2_norm.png,0.530653946,resources/alien1_norm.png,0.474041688,TRUE,TRUE,3,0.917218769,red,x,0.3327,alien2,TRUE,3,0.922780325,35,0,0.530653946,x,1.7176,0,82,82,82,1,0.474041688,0.530653946,0.392303267,0.287459421,TRUE,,,,,,,,,,,,,,,,,,,,,,,,,,,,,,,,,
GOSH_A15,2023-11-10_13h33.02.680,two_step_task_legacy,2022.2.4,Win32,60.34638827,11,learning,1,resources/alien4_norm.png,0.254140851,resources/alien3_norm.png,0.440685571,TRUE,TRUE,2,0.763173672,purple,m,0.6616,alien3,TRUE,3,0.457866353,35,0,0.440685571,m,0.9535,0,83,83,83,1,0.424967503,0.582042098,0.440685571,0.254140851,TRUE,,,,,,,,,,,,,,,,,,,,,,,,,,,,,,,,,
GOSH_A15,2023-11-10_13h33.02.680,two_step_task_legacy,2022.2.4,Win32,60.34638827,11,learning,0,resources/alien1_norm.png,0.397793995,resources/alien2_norm.png,0.603390008,TRUE,TRUE,3,0.323819982,red,m,0.6605,alien2,TRUE,2,0.466814675,36,1,0.603390008,m,0.8609,0,84,84,84,1,0.397793995,0.603390008,0.426076015,0.254161277,FALSE,,,,,,,,,,,,,,,,,,,,,,,,,,,,,,,,,
GOSH_A15,2023-11-10_13h33.02.680,two_step_task_legacy,2022.2.4,Win32,60.34638827,11,learning,0,resources/alien1_norm.png,0.353896535,resources/alien2_norm.png,0.591340821,TRUE,TRUE,3,0.336239511,red,m,0.4063,alien2,TRUE,2,0.078153516,37,1,0.591340821,m,0.4239,0,85,85,85,1,0.353896535,0.591340821,0.412731233,0.287499545,FALSE,,,,,,,,,,,,,,,,,,,,,,,,,,,,,,,,,
GOSH_A15,2023-11-10_13h33.02.680,two_step_task_legacy,2022.2.4,Win32,60.34638827,11,learning,1,resources/alien4_norm.png,0.329089706,resources/alien3_norm.png,0.405193684,TRUE,TRUE,2,0.713744158,purple,m,0.2875,alien4,TRUE,3,0.956349652,37,0,0.329089706,x,0.8869,0,86,86,86,1,0.37056204,0.589031784,0.405193684,0.329089706,TRUE,,,,,,,,,,,,,,,,,,,,,,,,,,,,,,,,,
GOSH_A15,2023-11-10_13h33.02.680,two_step_task_legacy,2022.2.4,Win32,60.34638827,11,learning,0,resources/alien1_norm.png,0.392392507,resources/alien2_norm.png,0.580656964,TRUE,TRUE,3,0.416016359,red,m,0.4717,alien2,TRUE,2,0.34683654,38,1,0.580656964,m,0.4732,0,87,87,87,1,0.392392507,0.580656964,0.415436249,0.298753594,FALSE,,,,,,,,,,,,,,,,,,,,,,,,,,,,,,,,,
GOSH_A15,2023-11-10_13h33.02.680,two_step_task_legacy,2022.2.4,Win32,60.34638827,11,learning,1,resources/alien3_norm.png,0.395801273,resources/alien4_norm.png,0.35786834,TRUE,TRUE,2,0.927515491,purple,m,0.2998,alien3,TRUE,3,0.583757297,38,0,0.395801273,x,0.8942,0,88,88,88,1,0.430938527,0.589667006,0.395801273,0.35786834,FALSE,,,,,,,,,,,,,,,,,,,,,,,,,,,,,,,,,
GOSH_A15,2023-11-10_13h33.02.680,two_step_task_legacy,2022.2.4,Win32,60.34638827,11,learning,1,resources/alien3_norm.png,0.381916612,resources/alien4_norm.png,0.370932323,TRUE,TRUE,2,0.796959007,purple,m,0.4235,alien3,TRUE,3,0.579014516,38,0,0.381916612,x,1.4113,0,89,89,89,1,0.425500089,0.585241124,0.381916612,0.370932323,FALSE,,,,,,,,,,,,,,,,,,,,,,,,,,,,,,,,,
GOSH_A15,2023-11-10_13h33.02.680,two_step_task_legacy,2022.2.4,Win32,60.34638827,11,learning,1,resources/alien4_norm.png,0.37105745,resources/alien3_norm.png,0.388688958,TRUE,TRUE,2,0.799635003,purple,m,0.4948,alien3,TRUE,2,0.221841142,39,1,0.388688958,m,1.1403,0,90,90,90,1,0.429761836,0.586839223,0.388688958,0.37105745,TRUE,,,,,,,,,,,,,,,,,,,,,,,,,,,,,,,,,
GOSH_A15,2023-11-10_13h33.02.680,two_step_task_legacy,2022.2.4,Win32,60.34638827,11,learning,0,resources/alien4_norm.png,0.348228929,resources/alien3_norm.png,0.372095661,TRUE,TRUE,2,0.696407232,purple,x,0.3874,alien3,TRUE,3,0.513083582,39,0,0.372095661,m,0.5623,0,91,91,91,1,0.43208582,0.559902226,0.372095661,0.348228929,TRUE,,,,,,,,,,,,,,,,,,,,,,,,,,,,,,,,,
GOSH_A15,2023-11-10_13h33.02.680,two_step_task_legacy,2022.2.4,Win32,60.34638827,11,learning,0,resources/alien3_norm.png,0.375940415,resources/alien4_norm.png,0.325999614,TRUE,TRUE,2,0.203656795,purple,x,0.4166,alien3,TRUE,3,0.378193956,39,0,0.375940415,x,0.654,0,92,92,92,1,0.461985946,0.558620764,0.375940415,0.325999614,FALSE,,,,,,,,,,,,,,,,,,,,,,,,,,,,,,,,,
GOSH_A15,2023-11-10_13h33.02.680,two_step_task_legacy,2022.2.4,Win32,60.34638827,11,learning,0,resources/alien2_norm.png,0.550374425,resources/alien1_norm.png,0.474247227,TRUE,TRUE,3,0.169591367,red,m,0.5502,alien2,TRUE,2,0.112153809,40,1,0.550374425,x,0.7336,0,93,93,93,1,0.474247227,0.550374425,0.381640589,0.332279798,TRUE,,,,,,,,,,,,,,,,,,,,,,,,,,,,,,,,,
GOSH_A15,2023-11-10_13h33.02.680,two_step_task_legacy,2022.2.4,Win32,60.34638827,11,learning,0,resources/alien1_norm.png,0.461705647,resources/alien2_norm.png,0.55027378,TRUE,TRUE,3,0.679019284,red,m,0.2997,alien2,TRUE,2,0.220251862,41,1,0.55027378,m,0.4812,0,94,94,94,1,0.461705647,0.55027378,0.396206696,0.349684918,FALSE,,,,,,,,,,,,,,,,,,,,,,,,,,,,,,,,,
GOSH_A15,2023-11-10_13h33.02.680,two_step_task_legacy,2022.2.4,Win32,60.34638827,11,learning,0,resources/alien1_norm.png,0.416984428,resources/alien2_norm.png,0.598369056,TRUE,TRUE,3,0.070455257,red,m,0.3673,alien2,TRUE,2,0.461354656,42,1,0.598369056,m,0.4502,0,95,95,95,1,0.416984428,0.598369056,0.38053924,0.354236965,FALSE,,,,,,,,,,,,,,,,,,,,,,,,,,,,,,,,,
GOSH_A15,2023-11-10_13h33.02.680,two_step_task_legacy,2022.2.4,Win32,60.34638827,11,learning,0,resources/alien1_norm.png,0.407761739,resources/alien2_norm.png,0.609173656,TRUE,TRUE,3,0.586546581,red,m,0.3168,alien2,TRUE,2,0.494404293,43,1,0.609173656,m,0.4617,0,96,96,96,1,0.407761739,0.609173656,0.428114694,0.407247632,FALSE,,,,,,,,,,,,,,,,,,,,,,,,,,,,,,,,,
GOSH_A15,2023-11-10_13h33.02.680,two_step_task_legacy,2022.2.4,Win32,60.34638827,11,learning,0,resources/alien2_norm.png,0.572817306,resources/alien1_norm.png,0.409341462,TRUE,TRUE,3,0.356321538,red,m,0.2779,alien2,TRUE,3,0.893341989,43,0,0.572817306,x,0.4591,0,97,97,97,1,0.409341462,0.572817306,0.436490439,0.380856422,TRUE,,,,,,,,,,,,,,,,,,,,,,,,,,,,,,,,,
GOSH_A15,2023-11-10_13h33.02.680,two_step_task_legacy,2022.2.4,Win32,60.34638827,11,learning,1,resources/alien2_norm.png,0.581511113,resources/alien1_norm.png,0.448797335,TRUE,TRUE,3,0.771388469,red,x,0.4087,alien2,TRUE,3,0.873791456,43,0,0.581511113,x,0.7959,0,98,98,98,1,0.448797335,0.581511113,0.448093405,0.349942531,TRUE,,,,,,,,,,,,,,,,,,,,,,,,,,,,,,,,,
GOSH_A15,2023-11-10_13h33.02.680,two_step_task_legacy,2022.2.4,Win32,60.34638827,11,learning,0,resources/alien4_norm.png,0.400056614,resources/alien3_norm.png,0.482171592,TRUE,TRUE,2,0.098462583,purple,x,0.3502,alien3,TRUE,3,0.966282749,43,0,0.482171592,m,1.0087,0,99,99,99,1,0.42387903,0.567760205,0.482171592,0.400056614,TRUE,,,,,,,,,,,,,,,,,,,,,,,,,,,,,,,,,
GOSH_A15,2023-11-10_13h33.02.680,two_step_task_legacy,2022.2.4,Win32,60.34638827,11,learning,0,resources/alien4_norm.png,0.415091917,resources/alien3_norm.png,0.46141079,TRUE,TRUE,2,0.388948745,purple,x,0.5044,alien4,TRUE,3,0.773416438,43,0,0.415091917,x,0.3664,0,100,100,100,1,0.412420681,0.563890316,0.46141079,0.415091917,TRUE,,,,,,,,,,,,,,,,,,,,,,,,,,,,,,,,,
GOSH_A15,2023-11-10_13h33.02.680,two_step_task_legacy,2022.2.4,Win32,60.34638827,11,learning,0,resources/alien4_norm.png,0.420370004,resources/alien3_norm.png,0.41992287,TRUE,TRUE,2,0.160193391,purple,x,0.4265,alien4,TRUE,3,0.923435211,43,0,0.420370004,x,0.5638,0,101,101,101,1,0.409728183,0.600035433,0.41992287,0.420370004,TRUE,,,,,,,,,,,,,,,,,,,,,,,,,,,,,,,,,
GOSH_A15,2023-11-10_13h33.02.680,two_step_task_legacy,2022.2.4,Win32,60.34638827,11,learning,1,resources/alien3_norm.png,0.421461486,resources/alien4_norm.png,0.407756446,TRUE,TRUE,2,0.875028628,purple,m,0.3053,alien3,TRUE,2,0.154867193,44,1,0.421461486,x,1.2878,0,102,102,102,1,0.470023162,0.598082931,0.421461486,0.407756446,FALSE,,,,,,,,,,,,,,,,,,,,,,,,,,,,,,,,,
GOSH_A15,2023-11-10_13h33.02.680,two_step_task_legacy,2022.2.4,Win32,60.34638827,11,learning,0,resources/alien3_norm.png,0.412157498,resources/alien4_norm.png,0.39986788,TRUE,TRUE,2,0.119634014,purple,x,0.3433,alien3,TRUE,3,0.960182881,44,0,0.412157498,x,0.4207,0,103,103,103,1,0.43789257,0.606396931,0.412157498,0.39986788,FALSE,,,,,,,,,,,,,,,,,,,,,,,,,,,,,,,,,
GOSH_A15,2023-11-10_13h33.02.680,two_step_task_legacy,2022.2.4,Win32,60.34638827,11,learning,1,resources/alien3_norm.png,0.383872268,resources/alien4_norm.png,0.425433133,TRUE,TRUE,2,0.952583682,purple,m,0.384,alien4,TRUE,2,0.246436503,45,1,0.425433133,m,1.3509,0,104,104,104,1,0.475073433,0.600008534,0.383872268,0.425433133,FALSE,,,,,,,,,,,,,,,,,,,,,,,,,,,,,,,,,
GOSH_A15,2023-11-10_13h33.02.680,two_step_task_legacy,2022.2.4,Win32,60.34638827,11,learning,0,resources/alien4_norm.png,0.416159119,resources/alien3_norm.png,0.369077296,TRUE,TRUE,2,0.237129681,purple,x,0.3315,alien4,TRUE,2,0.362512275,46,1,0.416159119,x,0.5529,0,105,105,105,1,0.459455836,0.621019516,0.369077296,0.416159119,TRUE,,,,,,,,,,,,,,,,,,,,,,,,,,,,,,,,,
GOSH_A15,2023-11-10_13h33.02.680,two_step_task_legacy,2022.2.4,Win32,60.34638827,11,learning,0,resources/alien3_norm.png,0.370186364,resources/alien4_norm.png,0.426891694,TRUE,TRUE,2,0.359416513,purple,x,0.3606,alien4,TRUE,3,0.955484862,46,0,0.426891694,m,0.4634,0,106,106,106,1,0.439265695,0.612005637,0.370186364,0.426891694,FALSE,,,,,,,,,,,,,,,,,,,,,,,,,,,,,,,,,
GOSH_A15,2023-11-10_13h33.02.680,two_step_task_legacy,2022.2.4,Win32,60.34638827,11,learning,0,resources/alien3_norm.png,0.403070205,resources/alien4_norm.png,0.443933115,TRUE,TRUE,2,0.144103473,purple,x,0.4551,alien4,TRUE,3,0.686676919,46,0,0.443933115,m,0.5054,0,107,107,107,1,0.416861628,0.613214029,0.403070205,0.443933115,FALSE,,,,,,,,,,,,,,,,,,,,,,,,,,,,,,,,,
GOSH_A15,2023-11-10_13h33.02.680,two_step_task_legacy,2022.2.4,Win32,60.34638827,11,learning,0,resources/alien1_norm.png,0.370312188,resources/alien2_norm.png,0.630447984,TRUE,TRUE,3,0.244829262,red,m,0.4259,alien1,TRUE,3,0.599737291,46,0,0.370312188,x,0.6357,0,108,108,108,1,0.370312188,0.630447984,0.4123455,0.404109598,FALSE,,,,,,,,,,,,,,,,,,,,,,,,,,,,,,,,,
GOSH_A15,2023-11-10_13h33.02.680,two_step_task_legacy,2022.2.4,Win32,60.34638827,11,learning,0,resources/alien2_norm.png,0.640961938,resources/alien1_norm.png,0.397578743,TRUE,TRUE,3,0.138690414,red,m,0.3604,alien2,TRUE,2,0.131996704,47,1,0.640961938,x,0.521,0,109,109,109,1,0.397578743,0.640961938,0.424317647,0.39028751,TRUE,,,,,,,,,,,,,,,,,,,,,,,,,,,,,,,,,
GOSH_A15,2023-11-10_13h33.02.680,two_step_task_legacy,2022.2.4,Win32,60.34638827,11,learning,0,resources/alien1_norm.png,0.382105981,resources/alien2_norm.png,0.616897372,TRUE,TRUE,3,0.026581528,red,m,0.7565,alien2,TRUE,2,0.043812415,48,1,0.616897372,m,0.5344,0,110,110,110,1,0.382105981,0.616897372,0.442095075,0.412876683,FALSE,,,,,,,,,,,,,,,,,,,,,,,,,,,,,,,,,
GOSH_A15,2023-11-10_13h33.02.680,two_step_task_legacy,2022.2.4,Win32,60.34638827,11,learning,1,resources/alien3_norm.png,0.431070335,resources/alien4_norm.png,0.374497877,TRUE,TRUE,2,0.87661635,purple,m,0.3501,alien3,TRUE,3,0.448697758,48,0,0.431070335,x,0.8732,0,111,111,111,1,0.384277465,0.604947349,0.431070335,0.374497877,FALSE,,,,,,,,,,,,,,,,,,,,,,,,,,,,,,,,,
GOSH_A15,2023-11-10_13h33.02.680,two_step_task_legacy,2022.2.4,Win32,60.34638827,11,learning,0,resources/alien1_norm.png,0.386075218,resources/alien2_norm.png,0.619040452,TRUE,TRUE,3,0.041611385,red,m,0.5567,alien2,TRUE,2,0.586894981,49,1,0.619040452,m,0.5661,0,112,112,112,1,0.386075218,0.619040452,0.440914329,0.389385149,FALSE,,,,,,,,,,,,,,,,,,,,,,,,,,,,,,,,,
GOSH_A15,2023-11-10_13h33.02.680,two_step_task_legacy,2022.2.4,Win32,60.34638827,11,learning,0,resources/alien1_norm.png,0.360923619,resources/alien2_norm.png,0.648065033,TRUE,TRUE,3,0.153628079,red,m,0.4538,alien2,TRUE,3,0.940850169,49,0,0.648065033,m,0.4342,0,113,113,113,1,0.360923619,0.648065033,0.481862535,0.41941802,FALSE,,,,,,,,,,,,,,,,,,,,,,,,,,,,,,,,,
GOSH_A15,2023-11-10_13h33.02.680,two_step_task_legacy,2022.2.4,Win32,60.34638827,11,learning,0,resources/alien1_norm.png,0.32290404,resources/alien2_norm.png,0.673813539,TRUE,TRUE,3,0.431506124,red,m,0.4697,alien2,TRUE,2,0.422249311,50,1,0.673813539,m,0.3877,0,114,114,114,1,0.32290404,0.673813539,0.49267225,0.440586974,FALSE,,,,,,,,,,,,,,,,,,,,,,,,,,,,,,,,,
GOSH_A15,2023-11-10_13h33.02.680,two_step_task_legacy,2022.2.4,Win32,60.34638827,11,learning,1,resources/alien1_norm.png,0.323455644,resources/alien2_norm.png,0.710523316,TRUE,TRUE,3,0.976644512,red,x,0.8108,alien2,TRUE,3,0.797163886,50,0,0.710523316,m,0.9239,0,115,115,115,1,0.323455644,0.710523316,0.509836388,0.461677665,FALSE,,,,,,,,,,,,,,,,,,,,,,,,,,,,,,,,,
GOSH_A15,2023-11-10_13h33.02.680,two_step_task_legacy,2022.2.4,Win32,60.34638827,11,learning,0,resources/alien3_norm.png,0.439463659,resources/alien4_norm.png,0.478781129,TRUE,TRUE,2,0.553526131,purple,x,0.3504,alien4,TRUE,3,0.712374326,50,0,0.478781129,m,0.8941,0,116,116,116,1,0.342298796,0.71345274,0.439463659,0.478781129,FALSE,,,,,,,,,,,,,,,,,,,,,,,,,,,,,,,,,
GOSH_A15,2023-11-10_13h33.02.680,two_step_task_legacy,2022.2.4,Win32,60.34638827,11,learning,0,resources/alien3_norm.png,0.417535164,resources/alien4_norm.png,0.445291487,TRUE,TRUE,2,0.592305144,purple,x,0.4874,alien3,TRUE,2,0.150018219,51,1,0.417535164,x,0.5791,0,117,117,117,1,0.334859228,0.720890484,0.417535164,0.445291487,FALSE,,,,,,,,,,,,,,,,,,,,,,,,,,,,,,,,,
GOSH_A15,2023-11-10_13h33.02.680,two_step_task_legacy,2022.2.4,Win32,60.34638827,11,learning,0,resources/alien3_norm.png,0.388471429,resources/alien4_norm.png,0.461420132,TRUE,TRUE,2,0.492178297,purple,x,0.2868,alien3,TRUE,3,0.535326579,51,0,0.388471429,x,0.3872,0,118,118,118,1,0.306028049,0.72441163,0.388471429,0.461420132,FALSE,,,,,,,,,,,,,,,,,,,,,,,,,,,,,,,,,
GOSH_A15,2023-11-10_13h33.02.680,two_step_task_legacy,2022.2.4,Win32,60.34638827,11,learning,0,resources/alien2_norm.png,0.700852841,resources/alien1_norm.png,0.331712501,TRUE,TRUE,3,0.12354814,red,m,1.0861,alien2,TRUE,2,0.519634137,52,1,0.700852841,x,0.705,0,119,119,119,1,0.331712501,0.700852841,0.441704145,0.491748934,TRUE,,,,,,,,,,,,,,,,,,,,,,,,,,,,,,,,,
GOSH_A15,2023-11-10_13h33.02.680,two_step_task_legacy,2022.2.4,Win32,60.34638827,11,learning,0,resources/alien1_norm.png,0.32951786,resources/alien2_norm.png,0.706027338,TRUE,TRUE,3,0.090907521,red,m,0.294,alien2,TRUE,3,0.739317439,52,0,0.706027338,m,0.4385,0,120,120,120,1,0.32951786,0.706027338,0.427665055,0.475337246,FALSE,,,,,,,,,,,,,,,,,,,,,,,,,,,,,,,,,
GOSH_A15,2023-11-10_13h33.02.680,two_step_task_legacy,2022.2.4,Win32,60.34638827,11,learning,1,resources/alien4_norm.png,0.509069185,resources/alien3_norm.png,0.424883353,TRUE,TRUE,2,0.77389293,purple,m,0.3271,alien4,TRUE,2,0.09282749,53,1,0.509069185,x,0.9861,0,121,121,121,1,0.330261592,0.737341807,0.424883353,0.509069185,TRUE,,,,,,,,,,,,,,,,,,,,,,,,,,,,,,,,,
GOSH_A15,2023-11-10_13h33.02.680,two_step_task_legacy,2022.2.4,Win32,60.34638827,11,learning,1,resources/alien2_norm.png,0.73276884,resources/alien1_norm.png,0.344846278,TRUE,TRUE,3,0.802957786,red,x,0.3637,alien2,TRUE,2,0.380881516,54,1,0.73276884,x,1.0036,0,122,122,122,1,0.344846278,0.73276884,0.372565975,0.507675589,TRUE,,,,,,,,,,,,,,,,,,,,,,,,,,,,,,,,,
GOSH_A15,2023-11-10_13h33.02.680,two_step_task_legacy,2022.2.4,Win32,60.34638827,11,learning,0,resources/alien2_norm.png,0.732502141,resources/alien1_norm.png,0.301180071,TRUE,TRUE,3,0.032468157,red,m,0.5184,alien2,TRUE,2,0.334979681,55,1,0.732502141,x,0.4075,0,123,123,123,1,0.301180071,0.732502141,0.417529896,0.517036319,TRUE,,,,,,,,,,,,,,,,,,,,,,,,,,,,,,,,,
GOSH_A15,2023-11-10_13h33.02.680,two_step_task_legacy,2022.2.4,Win32,60.34638827,11,learning,0,resources/alien2_norm.png,0.685332928,resources/alien1_norm.png,0.302511879,TRUE,TRUE,3,0.029333276,red,m,0.3019,alien2,TRUE,3,0.994252047,55,0,0.685332928,x,0.4047,0,124,124,124,1,0.302511879,0.685332928,0.42173742,0.511184893,TRUE,,,,,,,,,,,,,,,,,,,,,,,,,,,,,,,,,
GOSH_A15,2023-11-10_13h33.02.680,two_step_task_legacy,2022.2.4,Win32,60.34638827,11,learning,0,resources/alien1_norm.png,0.285413018,resources/alien2_norm.png,0.625335705,TRUE,TRUE,3,0.399809912,red,m,0.3842,alien2,TRUE,3,0.83509568,55,0,0.625335705,m,0.6792,0,125,125,125,1,0.285413018,0.625335705,0.393240926,0.566242911,FALSE,,,,,,,,,,,,,,,,,,,,,,,,,,,,,,,,,
GOSH_A15,2023-11-10_13h33.02.680,two_step_task_legacy,2022.2.4,Win32,60.34638827,11,learning,0,resources/alien4_norm.png,0.552018895,resources/alien3_norm.png,0.39388883,TRUE,TRUE,2,0.559878735,purple,x,0.4339,alien3,TRUE,3,0.426220204,55,0,0.39388883,m,0.42,0,126,126,126,1,0.292942249,0.66920814,0.39388883,0.552018895,TRUE,,,,,,,,,,,,,,,,,,,,,,,,,,,,,,,,,
GOSH_A15,2023-11-10_13h33.02.680,two_step_task_legacy,2022.2.4,Win32,60.34638827,11,learning,1,resources/alien1_norm.png,0.297873079,resources/alien2_norm.png,0.739663062,TRUE,TRUE,3,0.879296304,red,x,0.9877,alien1,TRUE,3,0.68522908,55,0,0.297873079,x,1.1094,0,127,127,127,1,0.297873079,0.739663062,0.430413644,0.566008228,FALSE,,,,,,,,,,,,,,,,,,,,,,,,,,,,,,,,,
GOSH_A15,2023-11-10_13h33.02.680,two_step_task_legacy,2022.2.4,Win32,60.34638827,11,learning,0,resources/alien4_norm.png,0.56929572,resources/alien3_norm.png,0.420023625,TRUE,TRUE,2,0.619039829,purple,x,0.4208,alien4,TRUE,2,0.114847209,56,1,0.56929572,x,0.5571,0,128,128,128,1,0.322041132,0.741610207,0.420023625,0.56929572,TRUE,,,,,,,,,,,,,,,,,,,,,,,,,,,,,,,,,
GOSH_A15,2023-11-10_13h33.02.680,two_step_task_legacy,2022.2.4,Win32,60.34638827,11,learning,0,resources/alien3_norm.png,0.449769214,resources/alien4_norm.png,0.563348669,TRUE,TRUE,2,0.514271736,purple,x,0.3174,alien4,TRUE,3,0.812979616,56,0,0.563348669,m,0.5147,0,129,129,129,1,0.300972771,0.702201765,0.449769214,0.563348669,FALSE,,,,,,,,,,,,,,,,,,,,,,,,,,,,,,,,,
GOSH_A15,2023-11-10_13h33.02.680,two_step_task_legacy,2022.2.4,Win32,60.34638827,11,learning,1,resources/alien4_norm.png,0.543372453,resources/alien3_norm.png,0.476905855,TRUE,TRUE,2,0.771890829,purple,m,0.568,alien4,TRUE,2,0.239927669,57,1,0.543372453,x,0.971,0,130,130,130,1,0.309394882,0.682168877,0.476905855,0.543372453,TRUE,,,,,,,,,,,,,,,,,,,,,,,,,,,,,,,,,
GOSH_A15,2023-11-10_13h33.02.680,two_step_task_legacy,2022.2.4,Win32,60.34638827,11,learning,1,resources/alien2_norm.png,0.667549921,resources/alien1_norm.png,0.304060393,TRUE,TRUE,3,0.963803417,red,x,0.29,alien1,TRUE,2,0.239239212,58,1,0.304060393,m,1.2371,0,131,131,131,1,0.304060393,0.667549921,0.481826843,0.535502227,TRUE,,,,,,,,,,,,,,,,,,,,,,,,,,,,,,,,,
GOSH_A15,2023-11-10_13h33.02.680,two_step_task_legacy,2022.2.4,Win32,60.34638827,11,learning,0,resources/alien2_norm.png,0.694841666,resources/alien1_norm.png,0.312140737,TRUE,TRUE,3,0.550805721,red,m,0.4249,alien1,TRUE,3,0.33765589,58,0,0.312140737,m,0.5343,0,132,132,132,1,0.312140737,0.694841666,0.47286744,0.542899405,TRUE,,,,,,,,,,,,,,,,,,,,,,,,,,,,,,,,,
GOSH_A15,2023-11-10_13h33.02.680,two_step_task_legacy,2022.2.4,Win32,60.34638827,11,learning,1,resources/alien3_norm.png,0.500552221,resources/alien4_norm.png,0.525972175,TRUE,TRUE,2,0.96310713,purple,m,0.3405,alien4,TRUE,3,0.921494281,58,0,0.525972175,m,1.1842,0,133,133,133,1,0.334362108,0.707468685,0.500552221,0.525972175,FALSE,,,,,,,,,,,,,,,,,,,,,,,,,,,,,,,,,
GOSH_A15,2023-11-10_13h33.02.680,two_step_task_legacy,2022.2.4,Win32,60.34638827,11,learning,0,resources/alien2_norm.png,0.729767243,resources/alien1_norm.png,0.312840567,TRUE,TRUE,3,0.476767111,red,m,0.4028,alien1,TRUE,3,0.804901525,58,0,0.312840567,m,0.6168,0,134,134,134,1,0.312840567,0.729767243,0.485572466,0.503581213,TRUE,,,,,,,,,,,,,,,,,,,,,,,,,,,,,,,,,
GOSH_A15,2023-11-10_13h33.02.680,two_step_task_legacy,2022.2.4,Win32,60.34638827,11,learning,1,resources/alien2_norm.png,0.743400172,resources/alien1_norm.png,0.312825098,TRUE,TRUE,3,0.866128255,red,x,0.4659,alien2,TRUE,3,0.887323611,58,0,0.743400172,x,0.8332,0,135,135,135,1,0.312825098,0.743400172,0.466999856,0.5115277,TRUE,,,,,,,,,,,,,,,,,,,,,,,,,,,,,,,,,
GOSH_A15,2023-11-10_13h33.02.680,two_step_task_legacy,2022.2.4,Win32,60.34638827,11,learning,1,resources/alien1_norm.png,0.342196198,resources/alien2_norm.png,0.734901943,TRUE,TRUE,3,0.859349596,red,x,0.3561,alien1,TRUE,3,0.589789948,58,0,0.342196198,x,1.1383,0,136,136,136,1,0.342196198,0.734901943,0.464677105,0.536755588,FALSE,,,,,,,,,,,,,,,,,,,,,,,,,,,,,,,,,
GOSH_A15,2023-11-10_13h33.02.680,two_step_task_legacy,2022.2.4,Win32,60.34638827,11,learning,1,resources/alien1_norm.png,0.368861684,resources/alien2_norm.png,0.747011609,TRUE,TRUE,3,0.838159991,red,x,0.4834,alien2,TRUE,2,0.084853093,59,1,0.747011609,m,0.9547,0,137,137,137,1,0.368861684,0.747011609,0.49321831,0.494444841,FALSE,,,,,,,,,,,,,,,,,,,,,,,,,,,,,,,,,
GOSH_A15,2023-11-10_13h33.02.680,two_step_task_legacy,2022.2.4,Win32,60.34638827,11,learning,0,resources/alien2_norm.png,0.697212233,resources/alien1_norm.png,0.406866843,TRUE,TRUE,3,0.384857849,red,m,0.3102,alien2,TRUE,3,0.832370238,59,0,0.697212233,x,0.5465,0,138,138,138,1,0.406866843,0.697212233,0.476455124,0.495924537,TRUE,,,,,,,,,,,,,,,,,,,,,,,,,,,,,,,,,
GOSH_A15,2023-11-10_13h33.02.680,two_step_task_legacy,2022.2.4,Win32,60.34638827,11,learning,0,resources/alien1_norm.png,0.397205352,resources/alien2_norm.png,0.680972767,TRUE,TRUE,3,0.263490076,red,m,0.3729,alien2,TRUE,2,0.112137978,60,1,0.680972767,m,0.5915,0,139,139,139,1,0.397205352,0.680972767,0.492237558,0.482705961,FALSE,,,,,,,,,,,,,,,,,,,,,,,,,,,,,,,,,
GOSH_A15,2023-11-10_13h33.02.680,two_step_task_legacy,2022.2.4,Win32,60.34638827,11,learning,1,resources/alien4_norm.png,0.476273355,resources/alien3_norm.png,0.477118095,TRUE,TRUE,2,0.866096796,purple,m,0.3707,alien4,TRUE,3,0.606511635,60,0,0.476273355,x,0.9789,0,140,140,140,1,0.425269322,0.71001807,0.477118095,0.476273355,TRUE,,,,,,,,,,,,,,,,,,,,,,,,,,,,,,,,,
GOSH_A15,2023-11-10_13h33.02.680,two_step_task_legacy,2022.2.4,Win32,60.34638827,11,learning,0,resources/alien3_norm.png,0.53376836,resources/alien4_norm.png,0.506334783,TRUE,TRUE,2,0.647057401,purple,x,0.3841,alien3,TRUE,2,0.12485005,61,1,0.53376836,x,0.8679,0,141,141,141,1,0.44999939,0.707254196,0.53376836,0.506334783,FALSE,,,,,,,,,,,,,,,,,,,,,,,,,,,,,,,,,
GOSH_A15,2023-11-10_13h33.02.680,two_step_task_legacy,2022.2.4,Win32,60.34638827,11,learning,1,resources/alien1_norm.png,0.45857487,resources/alien2_norm.png,0.713900156,TRUE,TRUE,3,0.855949805,red,x,0.3202,alien2,TRUE,2,0.608872696,62,1,0.713900156,m,1.5965,0,142,142,142,1,0.45857487,0.713900156,0.530369859,0.488537075,FALSE,,,,,,,,,,,,,,,,,,,,,,,,,,,,,,,,,
GOSH_A15,2023-11-10_13h33.02.680,two_step_task_legacy,2022.2.4,Win32,60.34638827,11,learning,0,resources/alien4_norm.png,0.474258385,resources/alien3_norm.png,0.539460609,TRUE,TRUE,2,0.339946281,purple,x,0.5225,alien3,TRUE,2,0.087802035,63,1,0.539460609,m,0.4889,0,143,143,143,1,0.438181608,0.736832649,0.539460609,0.474258385,TRUE,,,,,,,,,,,,,,,,,,,,,,,,,,,,,,,,,
GOSH_A15,2023-11-10_13h33.02.680,two_step_task_legacy,2022.2.4,Win32,60.34638827,11,learning,0,resources/alien3_norm.png,0.55840292,resources/alien4_norm.png,0.452808468,TRUE,TRUE,2,0.307576544,purple,x,0.3392,alien3,TRUE,3,0.734593617,63,0,0.55840292,x,0.5431,0,144,144,144,1,0.387458235,0.724637397,0.55840292,0.452808468,FALSE,,,,,,,,,,,,,,,,,,,,,,,,,,,,,,,,,
GOSH_A15,2023-11-10_13h33.02.680,two_step_task_legacy,2022.2.4,Win32,60.34638827,11,learning,0,resources/alien2_norm.png,0.743825326,resources/alien1_norm.png,0.404254171,TRUE,TRUE,3,0.113563172,red,m,0.3285,alien2,TRUE,2,0.188851305,64,1,0.743825326,x,0.5124,0,145,145,145,1,0.404254171,0.743825326,0.616412204,0.486213014,TRUE,,,,,,,,,,,,,,,,,,,,,,,,,,,,,,,,,
GOSH_A15,2023-11-10_13h33.02.680,two_step_task_legacy,2022.2.4,Win32,60.34638827,11,learning,0,resources/alien1_norm.png,0.367820523,resources/alien2_norm.png,0.710524321,TRUE,TRUE,3,0.007546684,red,m,0.4566,alien2,TRUE,2,0.419730706,65,1,0.710524321,m,0.5668,0,146,146,146,1,0.367820523,0.710524321,0.615240174,0.484730978,FALSE,,,,,,,,,,,,,,,,,,,,,,,,,,,,,,,,,
GOSH_A15,2023-11-10_13h33.02.680,two_step_task_legacy,2022.2.4,Win32,60.34638827,11,learning,0,resources/alien2_norm.png,0.70157983,resources/alien1_norm.png,0.362321577,TRUE,TRUE,3,0.685876342,red,m,0.4588,alien2,TRUE,2,0.480550021,66,1,0.70157983,x,0.385,0,147,147,147,1,0.362321577,0.70157983,0.581764054,0.430151332,TRUE,,,,,,,,,,,,,,,,,,,,,,,,,,,,,,,,,
GOSH_A15,2023-11-10_13h33.02.680,two_step_task_legacy,2022.2.4,Win32,60.34638827,11,learning,1,resources/alien4_norm.png,0.425785354,resources/alien3_norm.png,0.576437376,TRUE,TRUE,2,0.81211449,purple,m,0.3872,alien4,TRUE,3,0.834822462,66,0,0.425785354,x,0.8954,0,148,148,148,1,0.302379389,0.735653625,0.576437376,0.425785354,TRUE,,,,,,,,,,,,,,,,,,,,,,,,,,,,,,,,,
GOSH_A15,2023-11-10_13h33.02.680,two_step_task_legacy,2022.2.4,Win32,60.34638827,11,learning,0,resources/alien1_norm.png,0.326468766,resources/alien2_norm.png,0.701760343,TRUE,TRUE,3,0.672923173,red,m,0.5543,alien2,TRUE,3,0.888574434,66,0,0.701760343,m,0.6218,0,149,149,149,1,0.326468766,0.701760343,0.598082344,0.396012467,FALSE,,,,,,,,,,,,,,,,,,,,,,,,,,,,,,,,,
GOSH_A15,2023-11-10_13h33.02.680,two_step_task_legacy,2022.2.4,Win32,60.34638827,11,learning,1,resources/alien4_norm.png,0.4,resources/alien3_norm.png,0.6,TRUE,TRUE,2,0.910722214,purple,m,0.6835,alien3,TRUE,2,0.063920391,67,1,0.6,m,1.1036,0,150,150,150,1,0.3,0.7,0.6,0.4,TRUE,,,,,,,,,,,,,,,,,,,,,,,,,,,,,,,,,
GOSH_A15,2023-11-10_13h33.02.680,two_step_task_legacy,2022.2.4,Win32,60.34638827,11,learning,0,resources/alien4_norm.png,0.4,resources/alien3_norm.png,0.6,TRUE,TRUE,2,0.548327143,purple,x,0.3104,alien3,TRUE,3,0.973833489,67,0,0.6,m,0.6233,0,151,151,151,1,0.3,0.7,0.6,0.4,TRUE,,,,,,,,,,,,,,,,,,,,,,,,,,,,,,,,,
GOSH_A15,2023-11-10_13h33.02.680,two_step_task_legacy,2022.2.4,Win32,60.34638827,11,learning,0,resources/alien4_norm.png,0.4,resources/alien3_norm.png,0.6,TRUE,TRUE,2,0.184138578,purple,x,0.8796,alien3,TRUE,2,0.498829444,68,1,0.6,m,0.4183,0,152,152,152,1,0.3,0.7,0.6,0.4,TRUE,,,,,,,,,,,,,,,,,,,,,,,,,,,,,,,,,
GOSH_A15,2023-11-10_13h33.02.680,two_step_task_legacy,2022.2.4,Win32,60.34638827,11,learning,0,resources/alien4_norm.png,0.4,resources/alien3_norm.png,0.6,TRUE,TRUE,2,0.059774563,purple,x,0.5291,alien3,TRUE,2,0.028089341,69,1,0.6,m,0.518,0,153,153,153,1,0.3,0.7,0.6,0.4,TRUE,,,,,,,,,,,,,,,,,,,,,,,,,,,,,,,,,
GOSH_A15,2023-11-10_13h33.02.680,two_step_task_legacy,2022.2.4,Win32,60.34638827,11,learning,0,resources/alien3_norm.png,0.6,resources/alien4_norm.png,0.4,TRUE,TRUE,2,0.186287064,purple,x,0.9954,alien3,TRUE,3,0.686471406,69,0,0.6,x,0.7404,0,154,154,154,1,0.3,0.7,0.6,0.4,FALSE,,,,,,,,,,,,,,,,,,,,,,,,,,,,,,,,,
GOSH_A15,2023-11-10_13h33.02.680,two_step_task_legacy,2022.2.4,Win32,60.34638827,11,learning,0,resources/alien2_norm.png,0.7,resources/alien1_norm.png,0.3,TRUE,TRUE,3,0.127910212,red,m,0.594,alien2,TRUE,3,0.86145393,69,0,0.7,x,0.6931,0,155,155,155,1,0.3,0.7,0.6,0.4,TRUE,,,,,,,,,,,,,,,,,,,,,,,,,,,,,,,,,
GOSH_A15,2023-11-10_13h33.02.680,two_step_task_legacy,2022.2.4,Win32,60.34638827,11,learning,0,resources/alien1_norm.png,0.3,resources/alien2_norm.png,0.7,TRUE,TRUE,3,0.064635745,red,m,0.591,alien1,TRUE,3,0.773507481,69,0,0.3,x,0.5441,0,156,156,156,1,0.3,0.7,0.6,0.4,FALSE,,,,,,,,,,,,,,,,,,,,,,,,,,,,,,,,,
GOSH_A15,2023-11-10_13h33.02.680,two_step_task_legacy,2022.2.4,Win32,60.34638827,11,learning,0,resources/alien3_norm.png,0.6,resources/alien4_norm.png,0.4,TRUE,TRUE,2,0.226883045,purple,x,0.6168,alien3,TRUE,2,0.420769285,70,1,0.6,x,0.5217,0,157,157,157,1,0.3,0.7,0.6,0.4,FALSE,,,,,,,,,,,,,,,,,,,,,,,,,,,,,,,,,
GOSH_A15,2023-11-10_13h33.02.680,two_step_task_legacy,2022.2.4,Win32,60.34638827,11,learning,0,resources/alien4_norm.png,0.4,resources/alien3_norm.png,0.6,TRUE,TRUE,2,0.649173137,purple,x,0.2955,alien3,TRUE,2,0.35980434,71,1,0.6,m,0.5759,0,158,158,158,1,0.3,0.7,0.6,0.4,TRUE,,,,,,,,,,,,,,,,,,,,,,,,,,,,,,,,,
GOSH_A15,2023-11-10_13h33.02.680,two_step_task_legacy,2022.2.4,Win32,60.34638827,11,learning,1,resources/alien1_norm.png,0.3,resources/alien2_norm.png,0.7,TRUE,TRUE,3,0.903906836,red,x,0.4004,alien2,TRUE,2,0.150551154,72,1,0.7,m,1.1331,0,159,159,159,1,0.3,0.7,0.6,0.4,FALSE,,,,,,,,,,,,,,,,,,,,,,,,,,,,,,,,,
GOSH_A15,2023-11-10_13h33.02.680,two_step_task_legacy,2022.2.4,Win32,60.34638827,11,learning,0,resources/alien2_norm.png,0.7,resources/alien1_norm.png,0.3,TRUE,TRUE,3,0.605375585,red,m,0.8241,alien2,TRUE,2,0.325125746,73,1,0.7,x,0.4999,0,160,160,160,1,0.3,0.7,0.6,0.4,TRUE,,,,,,,,,,,,,,,,,,,,,,,,,,,,,,,,,
GOSH_A15,2023-11-10_13h33.02.680,two_step_task_legacy,2022.2.4,Win32,60.34638827,11,learning,0,resources/alien1_norm.png,0.3,resources/alien2_norm.png,0.7,TRUE,TRUE,3,0.582605167,red,m,0.5846,alien2,TRUE,3,0.978758125,73,0,0.7,m,0.4774,0,161,161,161,1,0.3,0.7,0.6,0.4,FALSE,,,,,,,,,,,,,,,,,,,,,,,,,,,,,,,,,
GOSH_A15,2023-11-10_13h33.02.680,two_step_task_legacy,2022.2.4,Win32,60.34638827,11,learning,0,resources/alien3_norm.png,0.6,resources/alien4_norm.png,0.4,TRUE,TRUE,2,0.479083905,purple,x,0.5139,alien4,TRUE,2,0.313284971,74,1,0.4,m,0.7557,0,162,162,162,1,0.3,0.7,0.6,0.4,FALSE,,,,,,,,,,,,,,,,,,,,,,,,,,,,,,,,,
GOSH_A15,2023-11-10_13h33.02.680,two_step_task_legacy,2022.2.4,Win32,60.34638827,11,learning,0,resources/alien4_norm.png,0.4,resources/alien3_norm.png,0.6,TRUE,TRUE,2,0.528531752,purple,x,0.356,alien4,TRUE,2,0.3030401,75,1,0.4,x,0.45,0,163,163,163,1,0.3,0.7,0.6,0.4,TRUE,,,,,,,,,,,,,,,,,,,,,,,,,,,,,,,,,
GOSH_A15,2023-11-10_13h33.02.680,two_step_task_legacy,2022.2.4,Win32,60.34638827,11,learning,0,resources/alien3_norm.png,0.6,resources/alien4_norm.png,0.4,TRUE,TRUE,2,0.0225446,purple,x,0.3173,alien4,TRUE,3,0.601205685,75,0,0.4,m,0.604,0,164,164,164,1,0.3,0.7,0.6,0.4,FALSE,,,,,,,,,,,,,,,,,,,,,,,,,,,,,,,,,
GOSH_A15,2023-11-10_13h33.02.680,two_step_task_legacy,2022.2.4,Win32,60.34638827,11,learning,0,resources/alien4_norm.png,0.4,resources/alien3_norm.png,0.6,TRUE,TRUE,2,0.168907132,purple,x,0.327,alien4,TRUE,2,0.108427246,76,1,0.4,x,0.5501,0,165,165,165,1,0.3,0.7,0.6,0.4,TRUE,,,,,,,,,,,,,,,,,,,,,,,,,,,,,,,,,
GOSH_A15,2023-11-10_13h33.02.680,two_step_task_legacy,2022.2.4,Win32,60.34638827,11,learning,0,resources/alien3_norm.png,0.6,resources/alien4_norm.png,0.4,TRUE,TRUE,2,0.495085157,purple,x,0.3507,alien4,TRUE,2,0.294020317,77,1,0.4,m,0.5039,0,166,166,166,1,0.3,0.7,0.6,0.4,FALSE,,,,,,,,,,,,,,,,,,,,,,,,,,,,,,,,,
GOSH_A15,2023-11-10_13h33.02.680,two_step_task_legacy,2022.2.4,Win32,60.34638827,11,learning,0,resources/alien4_norm.png,0.4,resources/alien3_norm.png,0.6,TRUE,TRUE,2,0.655940958,purple,x,0.3296,alien4,TRUE,2,0.277155002,78,1,0.4,x,0.5009,0,167,167,167,1,0.3,0.7,0.6,0.4,TRUE,,,,,,,,,,,,,,,,,,,,,,,,,,,,,,,,,
GOSH_A15,2023-11-10_13h33.02.680,two_step_task_legacy,2022.2.4,Win32,60.34638827,11,learning,0,resources/alien4_norm.png,0.4,resources/alien3_norm.png,0.6,TRUE,TRUE,2,0.547428778,purple,x,0.3166,alien4,TRUE,3,0.966378241,78,0,0.4,x,0.4873,0,168,168,168,1,0.3,0.7,0.6,0.4,TRUE,,,,,,,,,,,,,,,,,,,,,,,,,,,,,,,,,
GOSH_A15,2023-11-10_13h33.02.680,two_step_task_legacy,2022.2.4,Win32,60.34638827,11,learning,0,resources/alien4_norm.png,0.4,resources/alien3_norm.png,0.6,TRUE,TRUE,2,0.192234074,purple,x,0.3386,alien4,TRUE,3,0.949881579,78,0,0.4,x,0.4228,0,169,169,169,1,0.3,0.7,0.6,0.4,TRUE,,,,,,,,,,,,,,,,,,,,,,,,,,,,,,,,,
GOSH_A15,2023-11-10_13h33.02.680,two_step_task_legacy,2022.2.4,Win32,60.34638827,11,learning,0,resources/alien2_norm.png,0.7,resources/alien1_norm.png,0.3,TRUE,TRUE,3,0.660292198,red,m,0.3841,alien1,TRUE,3,0.632769821,78,0,0.3,m,0.5543,0,170,170,170,1,0.3,0.7,0.6,0.4,TRUE,,,,,,,,,,,,,,,,,,,,,,,,,,,,,,,,,
GOSH_A15,2023-11-10_13h33.02.680,two_step_task_legacy,2022.2.4,Win32,60.34638827,11,learning,0,resources/alien1_norm.png,0.3,resources/alien2_norm.png,0.7,TRUE,TRUE,3,0.357564607,red,m,0.3317,alien2,TRUE,2,0.038103336,79,1,0.7,m,0.5344,0,171,171,171,1,0.3,0.7,0.6,0.4,FALSE,,,,,,,,,,,,,,,,,,,,,,,,,,,,,,,,,
GOSH_A15,2023-11-10_13h33.02.680,two_step_task_legacy,2022.2.4,Win32,60.34638827,11,learning,0,resources/alien1_norm.png,0.3,resources/alien2_norm.png,0.7,TRUE,TRUE,3,0.504461268,red,m,0.5998,alien2,TRUE,2,0.22748276,80,1,0.7,m,0.3877,0,172,172,172,1,0.3,0.7,0.6,0.4,FALSE,,,,,,,,,,,,,,,,,,,,,,,,,,,,,,,,,
GOSH_A15,2023-11-10_13h33.02.680,two_step_task_legacy,2022.2.4,Win32,60.34638827,11,learning,0,resources/alien2_norm.png,0.7,resources/alien1_norm.png,0.3,TRUE,TRUE,3,0.555327202,red,m,0.43,alien2,TRUE,2,0.108186446,81,1,0.7,x,0.5705,0,173,173,173,1,0.3,0.7,0.6,0.4,TRUE,,,,,,,,,,,,,,,,,,,,,,,,,,,,,,,,,
GOSH_A15,2023-11-10_13h33.02.680,two_step_task_legacy,2022.2.4,Win32,60.34638827,11,learning,1,resources/alien4_norm.png,0.4,resources/alien3_norm.png,0.6,TRUE,TRUE,2,0.709404126,purple,m,0.4709,alien4,TRUE,3,0.638624794,81,0,0.4,x,0.7241,0,174,174,174,1,0.3,0.7,0.6,0.4,TRUE,,,,,,,,,,,,,,,,,,,,,,,,,,,,,,,,,
GOSH_A15,2023-11-10_13h33.02.680,two_step_task_legacy,2022.2.4,Win32,60.34638827,11,learning,1,resources/alien4_norm.png,0.4,resources/alien3_norm.png,0.6,TRUE,TRUE,2,0.804739338,purple,m,0.4585,alien3,TRUE,2,0.015773703,82,1,0.6,m,1.2304,0,175,175,175,1,0.3,0.7,0.6,0.4,TRUE,,,,,,,,,,,,,,,,,,,,,,,,,,,,,,,,,
GOSH_A15,2023-11-10_13h33.02.680,two_step_task_legacy,2022.2.4,Win32,60.34638827,11,learning,0,resources/alien4_norm.png,0.4,resources/alien3_norm.png,0.6,TRUE,TRUE,2,0.349064896,purple,x,0.3331,alien3,TRUE,3,0.68572151,82,0,0.6,m,1.4166,0,176,176,176,1,0.3,0.7,0.6,0.4,TRUE,,,,,,,,,,,,,,,,,,,,,,,,,,,,,,,,,
GOSH_A15,2023-11-10_13h33.02.680,two_step_task_legacy,2022.2.4,Win32,60.34638827,11,learning,1,resources/alien2_norm.png,0.7,resources/alien1_norm.png,0.3,TRUE,TRUE,3,0.705456407,red,x,1.0093,alien2,TRUE,3,0.746375995,82,0,0.7,x,0.9609,0,177,177,177,1,0.3,0.7,0.6,0.4,TRUE,,,,,,,,,,,,,,,,,,,,,,,,,,,,,,,,,
GOSH_A15,2023-11-10_13h33.02.680,two_step_task_legacy,2022.2.4,Win32,60.34638827,11,learning,0,resources/alien3_norm.png,0.6,resources/alien4_norm.png,0.4,TRUE,TRUE,2,0.410204814,purple,x,0.4008,alien3,TRUE,2,0.231997481,83,1,0.6,x,0.5536,0,178,178,178,1,0.3,0.7,0.6,0.4,FALSE,,,,,,,,,,,,,,,,,,,,,,,,,,,,,,,,,
GOSH_A15,2023-11-10_13h33.02.680,two_step_task_legacy,2022.2.4,Win32,60.34638827,11,learning,0,resources/alien3_norm.png,0.6,resources/alien4_norm.png,0.4,TRUE,TRUE,2,0.230593611,purple,x,0.3059,alien3,TRUE,3,0.692544662,83,0,0.6,x,0.3716,0,179,179,179,1,0.3,0.7,0.6,0.4,FALSE,,,,,,,,,,,,,,,,,,,,,,,,,,,,,,,,,
GOSH_A15,2023-11-10_13h33.02.680,two_step_task_legacy,2022.2.4,Win32,60.34638827,11,learning,0,resources/alien3_norm.png,0.6,resources/alien4_norm.png,0.4,TRUE,TRUE,2,0.519196517,purple,x,0.4045,alien3,TRUE,2,0.280239754,84,1,0.6,x,0.4492,0,180,180,180,1,0.3,0.7,0.6,0.4,FALSE,,,,,,,,,,,,,,,,,,,,,,,,,,,,,,,,,
GOSH_A15,2023-11-10_13h33.02.680,two_step_task_legacy,2022.2.4,Win32,60.34638827,11,learning,0,resources/alien3_norm.png,0.6,resources/alien4_norm.png,0.4,TRUE,TRUE,2,0.261023105,purple,x,0.4231,alien3,TRUE,3,0.667292915,84,0,0.6,x,0.3832,0,181,181,181,1,0.3,0.7,0.6,0.4,FALSE,,,,,,,,,,,,,,,,,,,,,,,,,,,,,,,,,
GOSH_A15,2023-11-10_13h33.02.680,two_step_task_legacy,2022.2.4,Win32,60.34638827,11,learning,0,resources/alien1_norm.png,0.3,resources/alien2_norm.png,0.7,TRUE,TRUE,3,0.418628992,red,m,0.4837,alien1,TRUE,3,0.547121919,84,0,0.3,x,0.4972,0,182,182,182,1,0.3,0.7,0.6,0.4,FALSE,,,,,,,,,,,,,,,,,,,,,,,,,,,,,,,,,
GOSH_A15,2023-11-10_13h33.02.680,two_step_task_legacy,2022.2.4,Win32,60.34638827,11,learning,1,resources/alien2_norm.png,0.7,resources/alien1_norm.png,0.3,TRUE,TRUE,3,0.830253983,red,x,0.3068,alien1,TRUE,3,0.776618316,84,0,0.3,m,0.8358,0,183,183,183,1,0.3,0.7,0.6,0.4,TRUE,,,,,,,,,,,,,,,,,,,,,,,,,,,,,,,,,
GOSH_A15,2023-11-10_13h33.02.680,two_step_task_legacy,2022.2.4,Win32,60.34638827,11,learning,0,resources/alien1_norm.png,0.3,resources/alien2_norm.png,0.7,TRUE,TRUE,3,0.421448407,red,m,0.9211,alien2,TRUE,3,0.762550048,84,0,0.7,m,0.5673,0,184,184,184,1,0.3,0.7,0.6,0.4,FALSE,,,,,,,,,,,,,,,,,,,,,,,,,,,,,,,,,
GOSH_A15,2023-11-10_13h33.02.680,two_step_task_legacy,2022.2.4,Win32,60.34638827,11,learning,0,resources/alien4_norm.png,0.4,resources/alien3_norm.png,0.6,TRUE,TRUE,2,0.473584511,purple,x,0.3019,alien3,TRUE,2,0.424145918,85,1,0.6,m,1.0102,0,185,185,185,1,0.3,0.7,0.6,0.4,TRUE,,,,,,,,,,,,,,,,,,,,,,,,,,,,,,,,,
GOSH_A15,2023-11-10_13h33.02.680,two_step_task_legacy,2022.2.4,Win32,60.34638827,11,learning,0,resources/alien3_norm.png,0.6,resources/alien4_norm.png,0.4,TRUE,TRUE,2,0.474872043,purple,x,0.3841,alien3,TRUE,2,0.374697243,86,1,0.6,x,0.5735,0,186,186,186,1,0.3,0.7,0.6,0.4,FALSE,,,,,,,,,,,,,,,,,,,,,,,,,,,,,,,,,
GOSH_A15,2023-11-10_13h33.02.680,two_step_task_legacy,2022.2.4,Win32,60.34638827,11,learning,0,resources/alien4_norm.png,0.4,resources/alien3_norm.png,0.6,TRUE,TRUE,2,0.203509101,purple,x,0.3956,alien3,TRUE,3,0.766885958,86,0,0.6,m,0.6864,0,187,187,187,1,0.3,0.7,0.6,0.4,TRUE,,,,,,,,,,,,,,,,,,,,,,,,,,,,,,,,,
GOSH_A15,2023-11-10_13h33.02.680,two_step_task_legacy,2022.2.4,Win32,60.34638827,11,learning,0,resources/alien3_norm.png,0.6,resources/alien4_norm.png,0.4,TRUE,TRUE,2,0.202805253,purple,x,0.5333,alien3,TRUE,3,0.689477834,86,0,0.6,x,0.6318,0,188,188,188,1,0.3,0.7,0.6,0.4,FALSE,,,,,,,,,,,,,,,,,,,,,,,,,,,,,,,,,
GOSH_A15,2023-11-10_13h33.02.680,two_step_task_legacy,2022.2.4,Win32,60.34638827,11,learning,0,resources/alien1_norm.png,0.3,resources/alien2_norm.png,0.7,TRUE,TRUE,3,0.609309327,red,m,0.2782,alien1,TRUE,3,0.62377056,86,0,0.3,x,0.8947,0,189,189,189,1,0.3,0.7,0.6,0.4,FALSE,,,,,,,,,,,,,,,,,,,,,,,,,,,,,,,,,
GOSH_A15,2023-11-10_13h33.02.680,two_step_task_legacy,2022.2.4,Win32,60.34638827,11,learning,0,resources/alien1_norm.png,0.3,resources/alien2_norm.png,0.7,TRUE,TRUE,3,0.686704119,red,m,0.4061,alien2,TRUE,2,0.593556363,87,1,0.7,m,0.3998,0,190,190,190,1,0.3,0.7,0.6,0.4,FALSE,,,,,,,,,,,,,,,,,,,,,,,,,,,,,,,,,
GOSH_A15,2023-11-10_13h33.02.680,two_step_task_legacy,2022.2.4,Win32,60.34638827,11,learning,0,resources/alien1_norm.png,0.3,resources/alien2_norm.png,0.7,TRUE,TRUE,3,0.362938093,red,m,0.3106,alien2,TRUE,3,0.709178268,87,0,0.7,m,0.4158,0,191,191,191,1,0.3,0.7,0.6,0.4,FALSE,,,,,,,,,,,,,,,,,,,,,,,,,,,,,,,,,
GOSH_A15,2023-11-10_13h33.02.680,two_step_task_legacy,2022.2.4,Win32,60.34638827,11,learning,0,resources/alien3_norm.png,0.6,resources/alien4_norm.png,0.4,TRUE,TRUE,2,0.582636694,purple,x,0.3951,alien4,TRUE,3,0.751893263,87,0,0.4,m,0.6492,0,192,192,192,1,0.3,0.7,0.6,0.4,FALSE,,,,,,,,,,,,,,,,,,,,,,,,,,,,,,,,,
GOSH_A15,2023-11-10_13h33.02.680,two_step_task_legacy,2022.2.4,Win32,60.34638827,11,learning,0,resources/alien2_norm.png,0.7,resources/alien1_norm.png,0.3,TRUE,TRUE,3,0.275007734,red,m,0.4786,alien2,TRUE,2,0.352593525,88,1,0.7,x,0.6164,0,193,193,193,1,0.3,0.7,0.6,0.4,TRUE,,,,,,,,,,,,,,,,,,,,,,,,,,,,,,,,,
GOSH_A15,2023-11-10_13h33.02.680,two_step_task_legacy,2022.2.4,Win32,60.34638827,11,learning,0,resources/alien2_norm.png,0.7,resources/alien1_norm.png,0.3,TRUE,TRUE,3,0.367633254,red,m,0.3473,alien2,TRUE,2,0.453234367,89,1,0.7,x,0.5666,0,194,194,194,1,0.3,0.7,0.6,0.4,TRUE,,,,,,,,,,,,,,,,,,,,,,,,,,,,,,,,,
GOSH_A15,2023-11-10_13h33.02.680,two_step_task_legacy,2022.2.4,Win32,60.34638827,11,learning,1,resources/alien3_norm.png,0.6,resources/alien4_norm.png,0.4,TRUE,TRUE,2,0.858222955,purple,m,0.3,alien3,TRUE,2,0.055348352,90,1,0.6,x,0.8885,0,195,195,195,1,0.3,0.7,0.6,0.4,FALSE,,,,,,,,,,,,,,,,,,,,,,,,,,,,,,,,,
GOSH_A15,2023-11-10_13h33.02.680,two_step_task_legacy,2022.2.4,Win32,60.34638827,11,learning,0,resources/alien3_norm.png,0.6,resources/alien4_norm.png,0.4,TRUE,TRUE,2,0.011464338,purple,x,0.3531,alien3,TRUE,3,0.67123552,90,0,0.6,x,0.4373,0,196,196,196,1,0.3,0.7,0.6,0.4,FALSE,,,,,,,,,,,,,,,,,,,,,,,,,,,,,,,,,
GOSH_A15,2023-11-10_13h33.02.680,two_step_task_legacy,2022.2.4,Win32,60.34638827,11,learning,0,resources/alien2_norm.png,0.7,resources/alien1_norm.png,0.3,TRUE,TRUE,3,0.126091187,red,m,0.3399,alien2,TRUE,2,0.69603112,91,1,0.7,x,0.4542,0,197,197,197,1,0.3,0.7,0.6,0.4,TRUE,,,,,,,,,,,,,,,,,,,,,,,,,,,,,,,,,
GOSH_A15,2023-11-10_13h33.02.680,two_step_task_legacy,2022.2.4,Win32,60.34638827,11,learning,0,resources/alien1_norm.png,0.3,resources/alien2_norm.png,0.7,TRUE,TRUE,3,0.313163133,red,m,0.3076,alien2,TRUE,3,0.9848807,91,0,0.7,m,0.4719,0,198,198,198,1,0.3,0.7,0.6,0.4,FALSE,,,,,,,,,,,,,,,,,,,,,,,,,,,,,,,,,
GOSH_A15,2023-11-10_13h33.02.680,two_step_task_legacy,2022.2.4,Win32,60.34638827,11,learning,1,resources/alien4_norm.png,0.4,resources/alien3_norm.png,0.6,TRUE,TRUE,2,0.899713312,purple,m,0.2875,alien3,TRUE,3,0.891301154,91,0,0.6,m,1.3657,0,199,199,199,1,0.3,0.7,0.6,0.4,TRUE,,,,,,,,,,,,,,,,,,,,,,,,,,,,,,,,,
GOSH_A15,2023-11-10_13h33.02.680,two_step_task_legacy,2022.2.4,Win32,60.34638827,11,learning,1,resources/alien4_norm.png,0.4,resources/alien3_norm.png,0.6,TRUE,TRUE,2,0.711443031,purple,m,0.3522,alien4,TRUE,3,0.840057673,91,0,0.4,x,1.3013,0,200,200,200,1,0.3,0.7,0.6,0.4,TRUE,,,,,,,,,,,,,,,,,,,,,,,,,,,,,,,,,
GOSH_A15,2023-11-10_13h33.02.680,two_step_task_legacy,2022.2.4,Win32,60.34638827,11,learning,0,resources/alien2_norm.png,0.7,resources/alien1_norm.png,0.3,TRUE,TRUE,3,0.586308833,red,m,0.386,alien2,TRUE,2,0.677824727,92,1,0.7,x,0.4943,0,201,201,201,1,0.3,0.7,0.6,0.4,TRUE,,,,,,,,,,,,,,,,,,,,,,,,,,,,,,,,,
GOSH_A15,2023-11-10_13h33.02.680,two_step_task_legacy,2022.2.4,Win32,60.34638827,11,learning,0,resources/alien1_norm.png,0.3,resources/alien2_norm.png,0.7,TRUE,TRUE,3,0.433123628,red,m,0.9943,alien2,TRUE,2,0.587038199,93,1,0.7,m,0.5396,0,202,202,202,1,0.3,0.7,0.6,0.4,FALSE,,,,,,,,,,,,,,,,,,,,,,,,,,,,,,,,,
GOSH_A15,2023-11-10_13h33.02.680,two_step_task_legacy,2022.2.4,Win32,60.34638827,11,learning,0,resources/alien2_norm.png,0.7,resources/alien1_norm.png,0.3,TRUE,TRUE,3,0.368587333,red,m,0.5314,alien2,TRUE,2,0.487666691,94,1,0.7,x,0.4189,0,203,203,203,1,0.3,0.7,0.6,0.4,TRUE,,,,,,,,,,,,,,,,,,,,,,,,,,,,,,,,,
GOSH_A15,2023-11-10_13h33.02.680,two_step_task_legacy,2022.2.4,Win32,60.34638827,11,learning,0,resources/alien2_norm.png,0.7,resources/alien1_norm.png,0.3,TRUE,TRUE,3,0.464541236,red,m,0.3501,alien2,TRUE,2,0.147451304,95,1,0.7,x,0.4627,0,204,204,204,1,0.3,0.7,0.6,0.4,TRUE,,,,,,,,,,,,,,,,,,,,,,,,,,,,,,,,,
GOSH_A15,2023-11-10_13h33.02.680,two_step_task_legacy,2022.2.4,Win32,60.34638827,11,learning,0,resources/alien1_norm.png,0.3,resources/alien2_norm.png,0.7,TRUE,TRUE,3,0.349675303,red,m,0.3196,alien2,TRUE,3,0.720499965,95,0,0.7,m,0.493,0,205,205,205,1,0.3,0.7,0.6,0.4,FALSE,,,,,,,,,,,,,,,,,,,,,,,,,,,,,,,,,
GOSH_A15,2023-11-10_13h33.02.680,two_step_task_legacy,2022.2.4,Win32,60.34638827,11,learning,1,resources/alien4_norm.png,0.4,resources/alien3_norm.png,0.6,TRUE,TRUE,2,0.953557859,purple,m,0.3085,alien4,TRUE,2,0.039832625,96,1,0.4,x,0.4504,0,206,206,206,1,0.3,0.7,0.6,0.4,TRUE,,,,,,,,,,,,,,,,,,,,,,,,,,,,,,,,,
GOSH_A15,2023-11-10_13h33.02.680,two_step_task_legacy,2022.2.4,Win32,60.34638827,11,learning,1,resources/alien2_norm.png,0.7,resources/alien1_norm.png,0.3,TRUE,TRUE,3,0.832100292,red,x,0.3508,alien2,TRUE,3,0.984545486,96,0,0.7,x,1.0995,0,207,207,207,1,0.3,0.7,0.6,0.4,TRUE,,,,,,,,,,,,,,,,,,,,,,,,,,,,,,,,,
GOSH_A15,2023-11-10_13h33.02.680,two_step_task_legacy,2022.2.4,Win32,60.34638827,11,learning,1,resources/alien2_norm.png,0.7,resources/alien1_norm.png,0.3,TRUE,TRUE,3,0.798726308,red,x,0.7783,alien1,TRUE,2,0.190059424,97,1,0.3,m,1.1014,0,208,208,208,1,0.3,0.7,0.6,0.4,TRUE,,,,,,,,,,,,,,,,,,,,,,,,,,,,,,,,,
GOSH_A15,2023-11-10_13h33.02.680,two_step_task_legacy,2022.2.4,Win32,60.34638827,11,learning,0,resources/alien2_norm.png,0.7,resources/alien1_norm.png,0.3,TRUE,TRUE,3,0.620032952,red,m,0.2813,alien1,TRUE,2,0.004594169,98,1,0.3,m,0.4729,0,209,209,209,1,0.3,0.7,0.6,0.4,TRUE,,,,,,,,,,,,,,,,,,,,,,,,,,,,,,,,,
GOSH_A15,2023-11-10_13h33.02.680,two_step_task_legacy,2022.2.4,Win32,60.34638827,11,learning,0,resources/alien1_norm.png,0.3,resources/alien2_norm.png,0.7,TRUE,TRUE,3,0.140555946,red,m,0.3006,alien1,TRUE,3,0.457899015,98,0,0.3,x,0.545,0,210,210,210,1,0.3,0.7,0.6,0.4,FALSE,,,,,,,,,,,,,,,,,,,,,,,,,,,,,,,,,
GOSH_A15,2023-11-10_13h33.02.680,two_step_task_legacy,2022.2.4,Win32,60.34638827,11,learning,1,resources/alien4_norm.png,0.4,resources/alien3_norm.png,0.6,TRUE,TRUE,2,0.97579237,purple,m,0.2711,alien4,TRUE,3,0.545622471,98,0,0.4,x,0.7382,0,211,211,211,1,0.3,0.7,0.6,0.4,TRUE,,,,,,,,,,,,,,,,,,,,,,,,,,,,,,,,,
GOSH_A15,2023-11-10_13h33.02.680,two_step_task_legacy,2022.2.4,Win32,60.34638827,11,learning,0,resources/alien1_norm.png,0.3,resources/alien2_norm.png,0.7,TRUE,TRUE,3,0.59825181,red,m,0.6875,alien1,TRUE,2,0.270710748,99,1,0.3,x,0.4089,0,212,212,212,1,0.3,0.7,0.6,0.4,FALSE,,,,,,,,,,,,,,,,,,,,,,,,,,,,,,,,,
GOSH_A15,2023-11-10_13h33.02.680,two_step_task_legacy,2022.2.4,Win32,60.34638827,11,learning,1,resources/alien4_norm.png,0.4,resources/alien3_norm.png,0.6,TRUE,TRUE,2,0.812612539,purple,m,0.2726,alien4,TRUE,3,0.88914388,99,0,0.4,x,0.8097,0,213,213,213,1,0.3,0.7,0.6,0.4,TRUE,,,,,,,,,,,,,,,,,,,,,,,,,,,,,,,,,
GOSH_A15,2023-11-10_13h33.02.680,two_step_task_legacy,2022.2.4,Win32,60.34638827,11,learning,0,resources/alien1_norm.png,0.3,resources/alien2_norm.png,0.7,TRUE,TRUE,3,0.692177237,red,m,0.2978,alien1,TRUE,3,0.36780048,99,0,0.3,x,0.4542,0,214,214,214,1,0.3,0.7,0.6,0.4,FALSE,,,,,,,,,,,,,,,,,,,,,,,,,,,,,,,,,
GOSH_A15,2023-11-10_13h33.02.680,two_step_task_legacy,2022.2.4,Win32,60.34638827,11,learning,1,resources/alien2_norm.png,0.7,resources/alien1_norm.png,0.3,TRUE,TRUE,3,0.989383944,red,x,0.4067,alien1,TRUE,3,0.441370586,99,0,0.3,m,0.8728,0,215,215,215,1,0.3,0.7,0.6,0.4,TRUE,,,,,,,,,,,,,,,,,,,,,,,,,,,,,,,,,
GOSH_A15,2023-11-10_13h33.02.680,two_step_task_legacy,2022.2.4,Win32,60.34638827,11,learning,0,resources/alien1_norm.png,0.3,resources/alien2_norm.png,0.7,TRUE,TRUE,3,0.250069118,red,m,0.4001,alien2,TRUE,2,0.111935517,100,1,0.7,m,0.4998,0,216,216,216,1,0.3,0.7,0.6,0.4,FALSE,,,,,,,,,,,,,,,,,,,,,,,,,,,,,,,,,
GOSH_A15,2023-11-10_13h33.02.680,two_step_task_legacy,2022.2.4,Win32,60.34638827,11,learning,0,resources/alien2_norm.png,0.7,resources/alien1_norm.png,0.3,TRUE,TRUE,3,0.687689772,red,m,0.2846,alien2,TRUE,2,0.548369661,101,1,0.7,x,0.4767,0,217,217,217,1,0.3,0.7,0.6,0.4,TRUE,,,,,,,,,,,,,,,,,,,,,,,,,,,,,,,,,
GOSH_A15,2023-11-10_13h33.02.680,two_step_task_legacy,2022.2.4,Win32,60.34638827,11,learning,1,resources/alien4_norm.png,0.4,resources/alien3_norm.png,0.6,TRUE,TRUE,2,0.898976547,purple,m,0.3174,alien4,TRUE,2,0.370839501,102,1,0.4,x,1.1144,0,218,218,218,1,0.3,0.7,0.6,0.4,TRUE,,,,,,,,,,,,,,,,,,,,,,,,,,,,,,,,,
GOSH_A15,2023-11-10_13h33.02.680,two_step_task_legacy,2022.2.4,Win32,60.34638827,11,learning,1,resources/alien2_norm.png,0.7,resources/alien1_norm.png,0.3,TRUE,TRUE,3,0.862713503,red,x,0.2982,alien2,TRUE,2,0.55195523,103,1,0.7,x,0.9371,0,219,219,219,1,0.3,0.7,0.6,0.4,TRUE,,,,,,,,,,,,,,,,,,,,,,,,,,,,,,,,,
GOSH_A15,2023-11-10_13h33.02.680,two_step_task_legacy,2022.2.4,Win32,60.34638827,11,learning,1,resources/alien4_norm.png,0.4,resources/alien3_norm.png,0.6,TRUE,TRUE,2,0.892581786,purple,m,0.5711,alien4,TRUE,3,0.474828132,103,0,0.4,x,1.1629,0,220,220,220,1,0.3,0.7,0.6,0.4,TRUE,,,,,,,,,,,,,,,,,,,,,,,,,,,,,,,,,
GOSH_A15,2023-11-10_13h33.02.680,two_step_task_legacy,2022.2.4,Win32,60.34638827,11,learning,0,resources/alien2_norm.png,0.7,resources/alien1_norm.png,0.3,TRUE,TRUE,3,0.008584693,red,m,0.723,alien2,TRUE,2,0.101818249,104,1,0.7,x,0.4424,0,221,221,221,1,0.3,0.7,0.6,0.4,TRUE,,,,,,,,,,,,,,,,,,,,,,,,,,,,,,,,,
GOSH_A15,2023-11-10_13h33.02.680,two_step_task_legacy,2022.2.4,Win32,60.34638827,11,learning,1,resources/alien4_norm.png,0.4,resources/alien3_norm.png,0.6,TRUE,TRUE,2,0.905570745,purple,m,0.2863,alien3,TRUE,2,0.182972768,105,1,0.6,m,1.0448,0,222,222,222,1,0.3,0.7,0.6,0.4,TRUE,,,,,,,,,,,,,,,,,,,,,,,,,,,,,,,,,
GOSH_A15,2023-11-10_13h33.02.680,two_step_task_legacy,2022.2.4,Win32,60.34638827,11,learning,0,resources/alien4_norm.png,0.4,resources/alien3_norm.png,0.6,TRUE,TRUE,2,0.352656075,purple,x,0.2815,alien3,TRUE,3,0.725928164,105,0,0.6,m,0.5175,0,223,223,223,1,0.3,0.7,0.6,0.4,TRUE,,,,,,,,,,,,,,,,,,,,,,,,,,,,,,,,,
GOSH_A15,2023-11-10_13h33.02.680,two_step_task_legacy,2022.2.4,Win32,60.34638827,11,learning,0,resources/alien1_norm.png,0.3,resources/alien2_norm.png,0.7,TRUE,TRUE,3,0.015286577,red,m,0.2565,alien2,TRUE,2,0.475049396,106,1,0.7,m,0.4763,0,224,224,224,1,0.3,0.7,0.6,0.4,FALSE,,,,,,,,,,,,,,,,,,,,,,,,,,,,,,,,,
GOSH_A15,2023-11-10_13h33.02.680,two_step_task_legacy,2022.2.4,Win32,60.34638827,11,learning,0,resources/alien2_norm.png,0.7,resources/alien1_norm.png,0.3,TRUE,TRUE,3,0.187359492,red,m,0.3549,alien2,TRUE,2,0.555008274,107,1,0.7,x,0.5222,0,225,225,225,1,0.3,0.7,0.6,0.4,TRUE,,,,,,,,,,,,,,,,,,,,,,,,,,,,,,,,,
GOSH_A15,2023-11-10_13h33.02.680,two_step_task_legacy,2022.2.4,Win32,60.34638827,11,learning,1,resources/alien3_norm.png,0.6,resources/alien4_norm.png,0.4,TRUE,TRUE,2,0.905926499,purple,m,0.326,alien3,TRUE,3,0.605830902,107,0,0.6,x,0.7001,0,226,226,226,1,0.3,0.7,0.6,0.4,FALSE,,,,,,,,,,,,,,,,,,,,,,,,,,,,,,,,,
GOSH_A15,2023-11-10_13h33.02.680,two_step_task_legacy,2022.2.4,Win32,60.34638827,11,learning,1,resources/alien3_norm.png,0.6,resources/alien4_norm.png,0.4,TRUE,TRUE,2,0.763040989,purple,m,0.2776,alien4,TRUE,2,0.106947811,108,1,0.4,m,0.79,0,227,227,227,1,0.3,0.7,0.6,0.4,FALSE,,,,,,,,,,,,,,,,,,,,,,,,,,,,,,,,,
GOSH_A15,2023-11-10_13h33.02.680,two_step_task_legacy,2022.2.4,Win32,60.34638827,11,learning,0,resources/alien4_norm.png,0.4,resources/alien3_norm.png,0.6,TRUE,TRUE,2,0.472025946,purple,x,0.3208,alien4,TRUE,3,0.445895322,108,0,0.4,x,0.417,0,228,228,228,1,0.3,0.7,0.6,0.4,TRUE,,,,,,,,,,,,,,,,,,,,,,,,,,,,,,,,,
GOSH_A15,2023-11-10_13h33.02.680,two_step_task_legacy,2022.2.4,Win32,60.34638827,11,learning,0,resources/alien2_norm.png,0.7,resources/alien1_norm.png,0.3,TRUE,TRUE,3,0.675465184,red,m,0.3174,alien1,TRUE,3,0.728502678,108,0,0.3,m,0.7549,0,229,229,229,1,0.3,0.7,0.6,0.4,TRUE,,,,,,,,,,,,,,,,,,,,,,,,,,,,,,,,,
GOSH_A15,2023-11-10_13h33.02.680,two_step_task_legacy,2022.2.4,Win32,60.34638827,11,learning,1,resources/alien3_norm.png,0.6,resources/alien4_norm.png,0.4,TRUE,TRUE,2,0.897869462,purple,m,0.3269,alien3,TRUE,2,0.09604207,109,1,0.6,x,1.4264,0,230,230,230,1,0.3,0.7,0.6,0.4,FALSE,,,,,,,,,,,,,,,,,,,,,,,,,,,,,,,,,
GOSH_A15,2023-11-10_13h33.02.680,two_step_task_legacy,2022.2.4,Win32,60.34638827,11,learning,1,resources/alien1_norm.png,0.3,resources/alien2_norm.png,0.7,TRUE,TRUE,3,0.767263558,red,x,0.3481,alien2,TRUE,2,0.185904497,110,1,0.7,m,1.037,0,231,231,231,1,0.3,0.7,0.6,0.4,FALSE,,,,,,,,,,,,,,,,,,,,,,,,,,,,,,,,,
GOSH_A15,2023-11-10_13h33.02.680,two_step_task_legacy,2022.2.4,Win32,60.34638827,11,learning,0,resources/alien2_norm.png,0.7,resources/alien1_norm.png,0.3,TRUE,TRUE,3,0.479327627,red,m,0.2666,alien2,TRUE,2,0.453069467,111,1,0.7,x,0.8455,0,232,232,232,1,0.3,0.7,0.6,0.4,TRUE,,,,,,,,,,,,,,,,,,,,,,,,,,,,,,,,,
GOSH_A15,2023-11-10_13h33.02.680,two_step_task_legacy,2022.2.4,Win32,60.34638827,11,learning,0,resources/alien1_norm.png,0.3,resources/alien2_norm.png,0.7,TRUE,TRUE,3,0.407126472,red,m,0.3566,alien2,TRUE,3,0.865949842,111,0,0.7,m,0.4601,0,233,233,233,1,0.3,0.7,0.6,0.4,FALSE,,,,,,,,,,,,,,,,,,,,,,,,,,,,,,,,,
GOSH_A15,2023-11-10_13h33.02.680,two_step_task_legacy,2022.2.4,Win32,60.34638827,11,learning,1,resources/alien4_norm.png,0.4,resources/alien3_norm.png,0.6,TRUE,TRUE,2,0.954408915,purple,m,0.2893,alien3,TRUE,2,0.526730261,112,1,0.6,m,1.2896,0,234,234,234,1,0.3,0.7,0.6,0.4,TRUE,,,,,,,,,,,,,,,,,,,,,,,,,,,,,,,,,
GOSH_A15,2023-11-10_13h33.02.680,two_step_task_legacy,2022.2.4,Win32,60.34638827,11,learning,1,resources/alien4_norm.png,0.4,resources/alien3_norm.png,0.6,TRUE,TRUE,2,0.976256674,purple,m,0.3737,alien3,TRUE,2,0.34845342,113,1,0.6,m,0.8174,0,235,235,235,1,0.3,0.7,0.6,0.4,TRUE,,,,,,,,,,,,,,,,,,,,,,,,,,,,,,,,,
GOSH_A15,2023-11-10_13h33.02.680,two_step_task_legacy,2022.2.4,Win32,60.34638827,11,learning,1,resources/alien1_norm.png,0.3,resources/alien2_norm.png,0.7,TRUE,TRUE,3,0.728325379,red,x,0.3841,alien2,TRUE,2,0.271936852,114,1,0.7,m,0.8598,0,236,236,236,1,0.3,0.7,0.6,0.4,FALSE,,,,,,,,,,,,,,,,,,,,,,,,,,,,,,,,,
GOSH_A15,2023-11-10_13h33.02.680,two_step_task_legacy,2022.2.4,Win32,60.34638827,11,learning,1,resources/alien1_norm.png,0.3,resources/alien2_norm.png,0.7,TRUE,TRUE,3,0.780539539,red,x,0.2993,alien2,TRUE,3,0.95861357,114,0,0.7,m,0.7545,0,237,237,237,1,0.3,0.7,0.6,0.4,FALSE,,,,,,,,,,,,,,,,,,,,,,,,,,,,,,,,,
GOSH_A15,2023-11-10_13h33.02.680,two_step_task_legacy,2022.2.4,Win32,60.34638827,11,learning,1,resources/alien1_norm.png,0.3,resources/alien2_norm.png,0.7,TRUE,TRUE,3,0.963403197,red,x,0.3373,alien2,TRUE,2,0.396241236,115,1,0.7,m,0.6501,0,238,238,238,1,0.3,0.7,0.6,0.4,FALSE,,,,,,,,,,,,,,,,,,,,,,,,,,,,,,,,,
GOSH_A15,2023-11-10_13h33.02.680,two_step_task_legacy,2022.2.4,Win32,60.34638827,11,learning,0,resources/alien1_norm.png,0.3,resources/alien2_norm.png,0.7,TRUE,TRUE,3,0.34570465,red,m,0.6129,alien2,TRUE,2,0.410417239,116,1,0.7,m,0.6082,0,239,239,239,1,0.3,0.7,0.6,0.4,FALSE,,,,,,,,,,,,,,,,,,,,,,,,,,,,,,,,,
GOSH_A15,2023-11-10_13h33.02.680,two_step_task_legacy,2022.2.4,Win32,60.34638827,11,learning,1,resources/alien2_norm.png,0.7,resources/alien1_norm.png,0.3,TRUE,TRUE,3,0.780877705,red,x,0.3998,alien2,TRUE,2,0.307741866,117,1,0.7,x,0.7104,0,240,240,240,1,0.3,0.7,0.6,0.4,TRUE,,,,,,,,,,,,,,,,,,,,,,,,,,,,,,,,,
GOSH_A15,2023-11-10_13h33.02.680,two_step_task_legacy,2022.2.4,Win32,60.34638827,11,learning,0,resources/alien1_norm.png,0.3,resources/alien2_norm.png,0.7,TRUE,TRUE,3,0.614050159,red,m,0.306,alien2,TRUE,2,0.425041884,118,1,0.7,m,0.5052,0,241,241,241,1,0.3,0.7,0.6,0.4,FALSE,,,,,,,,,,,,,,,,,,,,,,,,,,,,,,,,,
GOSH_A15,2023-11-10_13h33.02.680,two_step_task_legacy,2022.2.4,Win32,60.34638827,11,learning,0,resources/alien3_norm.png,0.6,resources/alien4_norm.png,0.4,TRUE,TRUE,2,0.049071668,purple,x,0.3167,alien3,TRUE,2,0.124310911,119,1,0.6,x,0.8066,0,242,242,242,1,0.3,0.7,0.6,0.4,FALSE,,,,,,,,,,,,,,,,,,,,,,,,,,,,,,,,,
GOSH_A15,2023-11-10_13h33.02.680,two_step_task_legacy,2022.2.4,Win32,60.34638827,11,learning,1,resources/alien4_norm.png,0.4,resources/alien3_norm.png,0.6,TRUE,TRUE,2,0.711134034,purple,m,0.3017,alien3,TRUE,2,0.247012209,120,1,0.6,m,0.9733,0,243,243,243,1,0.3,0.7,0.6,0.4,TRUE,,,,,,,,,,,,,,,,,,,,,,,,,,,,,,,,,
GOSH_A15,2023-11-10_13h33.02.680,two_step_task_legacy,2022.2.4,Win32,60.34638827,11,learning,0,resources/alien4_norm.png,0.4,resources/alien3_norm.png,0.6,TRUE,TRUE,2,0.131541688,purple,x,0.3894,alien3,TRUE,2,0.570646351,121,1,0.6,m,0.4207,0,244,244,244,1,0.3,0.7,0.6,0.4,TRUE,,,,,,,,,,,,,,,,,,,,,,,,,,,,,,,,,
GOSH_A15,2023-11-10_13h33.02.680,two_step_task_legacy,2022.2.4,Win32,60.34638827,11,learning,1,resources/alien1_norm.png,0.3,resources/alien2_norm.png,0.7,TRUE,TRUE,3,0.743020302,red,x,0.2627,alien2,TRUE,2,0.694435908,122,1,0.7,m,0.682,0,245,245,245,1,0.3,0.7,0.6,0.4,FALSE,,,,,,,,,,,,,,,,,,,,,,,,,,,,,,,,,
GOSH_A15,2023-11-10_13h33.02.680,two_step_task_legacy,2022.2.4,Win32,60.34638827,11,learning,1,resources/alien2_norm.png,0.7,resources/alien1_norm.png,0.3,TRUE,TRUE,3,0.895405283,red,x,0.2478,alien2,TRUE,3,0.946614581,122,0,0.7,x,0.6845,0,246,246,246,1,0.3,0.7,0.6,0.4,TRUE,,,,,,,,,,,,,,,,,,,,,,,,,,,,,,,,,
GOSH_A15,2023-11-10_13h33.02.680,two_step_task_legacy,2022.2.4,Win32,60.34638827,11,learning,1,resources/alien3_norm.png,0.6,resources/alien4_norm.png,0.4,TRUE,TRUE,2,0.88701796,purple,m,0.4921,alien3,TRUE,3,0.995919101,122,0,0.6,x,0.7091,0,247,247,247,1,0.3,0.7,0.6,0.4,FALSE,,,,,,,,,,,,,,,,,,,,,,,,,,,,,,,,,
GOSH_A15,2023-11-10_13h33.02.680,two_step_task_legacy,2022.2.4,Win32,60.34638827,11,learning,0,resources/alien2_norm.png,0.7,resources/alien1_norm.png,0.3,TRUE,TRUE,3,0.27138893,red,m,0.4506,alien1,TRUE,3,0.93610541,122,0,0.3,m,0.3778,0,248,248,248,1,0.3,0.7,0.6,0.4,TRUE,,,,,,,,,,,,,,,,,,,,,,,,,,,,,,,,,
GOSH_A15,2023-11-10_13h33.02.680,two_step_task_legacy,2022.2.4,Win32,60.34638827,11,learning,0,resources/alien3_norm.png,0.6,resources/alien4_norm.png,0.4,TRUE,TRUE,2,0.047258574,purple,x,0.5115,alien4,TRUE,3,0.767341871,122,0,0.4,m,0.7992,0,249,249,249,1,0.3,0.7,0.6,0.4,FALSE,,,,,,,,,,,,,,,,,,,,,,,,,,,,,,,,,
GOSH_A15,2023-11-10_13h33.02.680,two_step_task_legacy,2022.2.4,Win32,60.34638827,11,learning,1,resources/alien3_norm.png,0.6,resources/alien4_norm.png,0.4,TRUE,TRUE,2,0.78757167,purple,m,0.3194,alien3,TRUE,2,0.117449174,123,1,0.6,x,0.3525,0,250,250,250,1,0.3,0.7,0.6,0.4,FALSE,,,,,,,,,,,,,,,,,,,,,,,,,,,,,,,,,
GOSH_A15,2023-11-10_13h33.02.680,two_step_task_legacy,2022.2.4,Win32,60.34638827,11,learning,0,resources/alien4_norm.png,0.4,resources/alien3_norm.png,0.6,TRUE,TRUE,2,0.063255045,purple,x,0.494,alien3,TRUE,2,0.117966183,124,1,0.6,m,0.4673,0,251,251,251,1,0.3,0.7,0.6,0.4,TRUE,,,,,,,,,,,,,,,,,,,,,,,,,,,,,,,,,
GOSH_A15,2023-11-10_13h33.02.680,two_step_task_legacy,2022.2.4,Win32,60.34638827,11,learning,0,resources/alien3_norm.png,0.6,resources/alien4_norm.png,0.4,TRUE,TRUE,2,0.619515844,purple,x,0.469,alien3,TRUE,3,0.66560175,124,0,0.6,x,0.4368,0,252,252,252,1,0.3,0.7,0.6,0.4,FALSE,,,,,,,,,,,,,,,,,,,,,,,,,,,,,,,,,
GOSH_A15,2023-11-10_13h33.02.680,two_step_task_legacy,2022.2.4,Win32,60.34638827,11,learning,1,resources/alien2_norm.png,0.7,resources/alien1_norm.png,0.3,TRUE,TRUE,3,0.961599679,red,x,0.2606,alien1,TRUE,3,0.427730702,124,0,0.3,m,0.8036,0,253,253,253,1,0.3,0.7,0.6,0.4,TRUE,,,,,,,,,,,,,,,,,,,,,,,,,,,,,,,,,
GOSH_A15,2023-11-10_13h33.02.680,two_step_task_legacy,2022.2.4,Win32,60.34638827,11,learning,1,resources/alien1_norm.png,0.3,resources/alien2_norm.png,0.7,TRUE,TRUE,3,0.798113267,red,x,0.3446,alien1,TRUE,3,0.324378007,124,0,0.3,x,0.6967,0,254,254,254,1,0.3,0.7,0.6,0.4,FALSE,,,,,,,,,,,,,,,,,,,,,,,,,,,,,,,,,
GOSH_A15,2023-11-10_13h33.02.680,two_step_task_legacy,2022.2.4,Win32,60.34638827,11,learning,1,resources/alien3_norm.png,0.6,resources/alien4_norm.png,0.4,TRUE,TRUE,2,0.760351225,purple,m,0.341,alien3,TRUE,2,0.51517249,125,1,0.6,x,0.829,0,255,255,255,1,0.3,0.7,0.6,0.4,FALSE,,,,,,,,,,,,,,,,,,,,,,,,,,,,,,,,,
GOSH_A15,2023-11-10_13h33.02.680,two_step_task_legacy,2022.2.4,Win32,60.34638827,11,learning,0,resources/alien4_norm.png,0.4,resources/alien3_norm.png,0.6,TRUE,TRUE,2,0.192182385,purple,x,0.2712,alien3,TRUE,2,0.163556825,126,1,0.6,m,0.5334,0,256,256,256,1,0.3,0.7,0.6,0.4,TRUE,,,,,,,,,,,,,,,,,,,,,,,,,,,,,,,,,
GOSH_A15,2023-11-10_13h33.02.680,two_step_task_legacy,2022.2.4,Win32,60.34638827,11,learning,0,resources/alien4_norm.png,0.4,resources/alien3_norm.png,0.6,TRUE,TRUE,2,0.241708296,purple,x,0.3,alien3,TRUE,3,0.855551101,126,0,0.6,m,0.4842,0,257,257,257,1,0.3,0.7,0.6,0.4,TRUE,,,,,,,,,,,,,,,,,,,,,,,,,,,,,,,,,
GOSH_A15,2023-11-10_13h33.02.680,two_step_task_legacy,2022.2.4,Win32,60.34638827,11,learning,1,resources/alien1_norm.png,0.3,resources/alien2_norm.png,0.7,TRUE,TRUE,3,0.700210134,red,x,0.4956,alien2,TRUE,3,0.939588856,126,0,0.7,m,0.738,0,258,258,258,1,0.3,0.7,0.6,0.4,FALSE,,,,,,,,,,,,,,,,,,,,,,,,,,,,,,,,,
GOSH_A15,2023-11-10_13h33.02.680,two_step_task_legacy,2022.2.4,Win32,60.34638827,11,learning,0,resources/alien1_norm.png,0.3,resources/alien2_norm.png,0.7,TRUE,TRUE,3,0.456703808,red,m,0.4448,alien1,TRUE,3,0.961053544,126,0,0.3,x,0.3119,0,259,259,259,1,0.3,0.7,0.6,0.4,FALSE,,,,,,,,,,,,,,,,,,,,,,,,,,,,,,,,,
GOSH_A15,2023-11-10_13h33.02.680,two_step_task_legacy,2022.2.4,Win32,60.34638827,11,learning,0,resources/alien4_norm.png,0.4,resources/alien3_norm.png,0.6,TRUE,TRUE,2,0.145905692,purple,x,0.3078,alien3,TRUE,3,0.926743775,126,0,0.6,m,0.4441,0,260,260,260,1,0.3,0.7,0.6,0.4,TRUE,,,,,,,,,,,,,,,,,,,,,,,,,,,,,,,,,
GOSH_A15,2023-11-10_13h33.02.680,two_step_task_legacy,2022.2.4,Win32,60.34638827,11,learning,0,resources/alien3_norm.png,0.6,resources/alien4_norm.png,0.4,TRUE,TRUE,2,0.152873628,purple,x,0.2818,alien4,TRUE,3,0.889104386,126,0,0.4,m,0.5338,0,261,261,261,1,0.3,0.7,0.6,0.4,FALSE,,,,,,,,,,,,,,,,,,,,,,,,,,,,,,,,,
GOSH_A15,2023-11-10_13h33.02.680,two_step_task_legacy,2022.2.4,Win32,60.34638827,11,learning,1,resources/alien3_norm.png,0.6,resources/alien4_norm.png,0.4,TRUE,TRUE,2,0.970870523,purple,m,0.3352,alien4,TRUE,2,0.134654906,127,1,0.4,m,1.1774,0,262,262,262,1,0.3,0.7,0.6,0.4,FALSE,,,,,,,,,,,,,,,,,,,,,,,,,,,,,,,,,
GOSH_A15,2023-11-10_13h33.02.680,two_step_task_legacy,2022.2.4,Win32,60.34638827,11,learning,1,resources/alien1_norm.png,0.3,resources/alien2_norm.png,0.7,TRUE,TRUE,3,0.847298265,red,x,0.2665,alien1,TRUE,3,0.537909085,127,0,0.3,x,1.0434,0,263,263,263,1,0.3,0.7,0.6,0.4,FALSE,,,,,,,,,,,,,,,,,,,,,,,,,,,,,,,,,
GOSH_A15,2023-11-10_13h33.02.680,two_step_task_legacy,2022.2.4,Win32,60.34638827,11,learning,0,resources/alien3_norm.png,0.6,resources/alien4_norm.png,0.4,TRUE,TRUE,2,0.431604176,purple,x,0.2778,alien4,TRUE,3,0.523526833,127,0,0.4,m,0.6408,0,264,264,264,1,0.3,0.7,0.6,0.4,FALSE,,,,,,,,,,,,,,,,,,,,,,,,,,,,,,,,,
GOSH_A15,2023-11-10_13h33.02.680,two_step_task_legacy,2022.2.4,Win32,60.34638827,11,learning,1,resources/alien2_norm.png,0.7,resources/alien1_norm.png,0.3,TRUE,TRUE,3,0.774813316,red,x,0.4706,alien2,TRUE,2,0.23985201,128,1,0.7,x,1.1014,0,265,265,265,1,0.3,0.7,0.6,0.4,TRUE,,,,,,,,,,,,,,,,,,,,,,,,,,,,,,,,,
GOSH_A15,2023-11-10_13h33.02.680,two_step_task_legacy,2022.2.4,Win32,60.34638827,11,learning,1,resources/alien3_norm.png,0.6,resources/alien4_norm.png,0.4,TRUE,TRUE,2,0.794499181,purple,m,0.3004,alien3,TRUE,2,0.365992507,129,1,0.6,x,0.856,0,266,266,266,1,0.3,0.7,0.6,0.4,FALSE,,,,,,,,,,,,,,,,,,,,,,,,,,,,,,,,,
GOSH_A15,2023-11-10_13h33.02.680,two_step_task_legacy,2022.2.4,Win32,60.34638827,11,learning,1,resources/alien3_norm.png,0.6,resources/alien4_norm.png,0.4,TRUE,TRUE,2,0.873844896,purple,m,0.5339,alien3,TRUE,2,0.199506484,130,1,0.6,x,1.0671,0,267,267,267,1,0.3,0.7,0.6,0.4,FALSE,,,,,,,,,,,,,,,,,,,,,,,,,,,,,,,,,
GOSH_A15,2023-11-10_13h33.02.680,two_step_task_legacy,2022.2.4,Win32,60.34638827,11,learning,1,resources/alien3_norm.png,0.6,resources/alien4_norm.png,0.4,TRUE,TRUE,2,0.761936925,purple,m,0.3282,alien3,TRUE,3,0.984934932,130,0,0.6,x,0.5273,0,268,268,268,1,0.3,0.7,0.6,0.4,FALSE,,,,,,,,,,,,,,,,,,,,,,,,,,,,,,,,,
GOSH_A15,2023-11-10_13h33.02.680,two_step_task_legacy,2022.2.4,Win32,60.34638827,11,learning,0,resources/alien1_norm.png,0.3,resources/alien2_norm.png,0.7,TRUE,TRUE,3,0.214343791,red,m,0.2891,alien2,TRUE,3,0.748105223,130,0,0.7,m,0.6153,0,269,269,269,1,0.3,0.7,0.6,0.4,FALSE,,,,,,,,,,,,,,,,,,,,,,,,,,,,,,,,,
GOSH_A15,2023-11-10_13h33.02.680,two_step_task_legacy,2022.2.4,Win32,60.34638827,11,learning,1,resources/alien1_norm.png,0.3,resources/alien2_norm.png,0.7,TRUE,TRUE,3,0.725248956,red,x,0.2936,alien2,TRUE,2,0.693829741,131,1,0.7,m,0.6096,0,270,270,270,1,0.3,0.7,0.6,0.4,FALSE,,,,,,,,,,,,,,,,,,,,,,,,,,,,,,,,,
GOSH_A15,2023-11-10_13h33.02.680,two_step_task_legacy,2022.2.4,Win32,60.34638827,11,learning,1,resources/alien2_norm.png,0.7,resources/alien1_norm.png,0.3,TRUE,TRUE,3,0.929985154,red,x,0.3372,alien2,TRUE,2,0.226616788,132,1,0.7,x,0.5192,0,271,271,271,1,0.3,0.7,0.6,0.4,TRUE,,,,,,,,,,,,,,,,,,,,,,,,,,,,,,,,,
GOSH_A15,2023-11-10_13h33.02.680,two_step_task_legacy,2022.2.4,Win32,60.34638827,11,learning,0,resources/alien1_norm.png,0.3,resources/alien2_norm.png,0.7,TRUE,TRUE,3,0.205434546,red,m,0.3839,alien2,TRUE,2,0.582781268,133,1,0.7,m,0.5373,0,272,272,272,1,0.3,0.7,0.6,0.4,FALSE,,,,,,,,,,,,,,,,,,,,,,,,,,,,,,,,,
GOSH_A15,2023-11-10_13h33.02.680,two_step_task_legacy,2022.2.4,Win32,60.34638827,11,learning,0,resources/alien1_norm.png,0.3,resources/alien2_norm.png,0.7,TRUE,TRUE,3,0.048225603,red,m,0.2675,alien2,TRUE,3,0.730839984,133,0,0.7,m,0.4851,0,273,273,273,1,0.3,0.7,0.6,0.4,FALSE,,,,,,,,,,,,,,,,,,,,,,,,,,,,,,,,,
GOSH_A15,2023-11-10_13h33.02.680,two_step_task_legacy,2022.2.4,Win32,60.34638827,11,learning,0,resources/alien1_norm.png,0.3,resources/alien2_norm.png,0.7,TRUE,TRUE,3,0.414618595,red,m,0.8733,alien2,TRUE,3,0.988374492,133,0,0.7,m,0.4009,0,274,274,274,1,0.3,0.7,0.6,0.4,FALSE,,,,,,,,,,,,,,,,,,,,,,,,,,,,,,,,,
GOSH_A15,2023-11-10_13h33.02.680,two_step_task_legacy,2022.2.4,Win32,60.34638827,11,learning,1,resources/alien2_norm.png,0.7,resources/alien1_norm.png,0.3,TRUE,TRUE,3,0.929666219,red,x,0.2801,alien2,TRUE,2,0.350266133,134,1,0.7,x,0.821,0,275,275,275,1,0.3,0.7,0.6,0.4,TRUE,,,,,,,,,,,,,,,,,,,,,,,,,,,,,,,,,
GOSH_A15,2023-11-10_13h33.02.680,two_step_task_legacy,2022.2.4,Win32,60.34638827,11,learning,0,resources/alien3_norm.png,0.6,resources/alien4_norm.png,0.4,TRUE,TRUE,2,0.132915805,purple,x,0.3389,alien3,TRUE,2,0.569755187,135,1,0.6,x,0.9202,0,276,276,276,1,0.3,0.7,0.6,0.4,FALSE,,,,,,,,,,,,,,,,,,,,,,,,,,,,,,,,,
GOSH_A15,2023-11-10_13h33.02.680,two_step_task_legacy,2022.2.4,Win32,60.34638827,11,learning,0,resources/alien4_norm.png,0.4,resources/alien3_norm.png,0.6,TRUE,TRUE,2,0.561718134,purple,x,0.2871,alien3,TRUE,2,0.594224992,136,1,0.6,m,0.4578,0,277,277,277,1,0.3,0.7,0.6,0.4,TRUE,,,,,,,,,,,,,,,,,,,,,,,,,,,,,,,,,
GOSH_A15,2023-11-10_13h33.02.680,two_step_task_legacy,2022.2.4,Win32,60.34638827,11,learning,0,resources/alien3_norm.png,0.6,resources/alien4_norm.png,0.4,TRUE,TRUE,2,0.2651606,purple,x,0.2552,alien3,TRUE,2,0.270806386,137,1,0.6,x,0.5334,0,278,278,278,1,0.3,0.7,0.6,0.4,FALSE,,,,,,,,,,,,,,,,,,,,,,,,,,,,,,,,,
GOSH_A15,2023-11-10_13h33.02.680,two_step_task_legacy,2022.2.4,Win32,60.34638827,11,learning,0,resources/alien3_norm.png,0.6,resources/alien4_norm.png,0.4,TRUE,TRUE,2,0.391127751,purple,x,0.3202,alien3,TRUE,2,0.062019727,138,1,0.6,x,0.4007,0,279,279,279,1,0.3,0.7,0.6,0.4,FALSE,,,,,,,,,,,,,,,,,,,,,,,,,,,,,,,,,
GOSH_A15,2023-11-10_13h33.02.680,two_step_task_legacy,2022.2.4,Win32,60.34638827,11,learning,0,resources/alien3_norm.png,0.6,resources/alien4_norm.png,0.4,TRUE,TRUE,2,0.275360725,purple,x,0.2939,alien3,TRUE,2,0.503248308,139,1,0.6,x,0.369,0,280,280,280,1,0.3,0.7,0.6,0.4,FALSE,,,,,,,,,,,,,,,,,,,,,,,,,,,,,,,,,
GOSH_A15,2023-11-10_13h33.02.680,two_step_task_legacy,2022.2.4,Win32,60.34638827,11,learning,0,resources/alien4_norm.png,0.4,resources/alien3_norm.png,0.6,TRUE,TRUE,2,0.155063257,purple,x,0.3335,alien4,TRUE,3,0.584053898,139,0,0.4,x,0.618,0,281,281,281,1,0.3,0.7,0.6,0.4,TRUE,,,,,,,,,,,,,,,,,,,,,,,,,,,,,,,,,
GOSH_A15,2023-11-10_13h33.02.680,two_step_task_legacy,2022.2.4,Win32,60.34638827,11,learning,0,resources/alien4_norm.png,0.4,resources/alien3_norm.png,0.6,TRUE,TRUE,2,0.360529772,purple,x,0.613,alien3,TRUE,3,0.891966245,139,0,0.6,m,0.6278,0,282,282,282,1,0.3,0.7,0.6,0.4,TRUE,,,,,,,,,,,,,,,,,,,,,,,,,,,,,,,,,
GOSH_A15,2023-11-10_13h33.02.680,two_step_task_legacy,2022.2.4,Win32,60.34638827,11,learning,0,resources/alien3_norm.png,0.6,resources/alien4_norm.png,0.4,TRUE,TRUE,2,0.20573265,purple,x,0.5731,alien3,TRUE,3,0.986235162,139,0,0.6,x,0.4371,0,283,283,283,1,0.3,0.7,0.6,0.4,FALSE,,,,,,,,,,,,,,,,,,,,,,,,,,,,,,,,,
GOSH_A15,2023-11-10_13h33.02.680,two_step_task_legacy,2022.2.4,Win32,60.34638827,11,learning,1,resources/alien3_norm.png,0.6,resources/alien4_norm.png,0.4,TRUE,TRUE,2,0.997556712,purple,m,0.3674,alien4,TRUE,3,0.595166756,139,0,0.4,m,1.4402,0,284,284,284,1,0.3,0.7,0.6,0.4,FALSE,,,,,,,,,,,,,,,,,,,,,,,,,,,,,,,,,
GOSH_A15,2023-11-10_13h33.02.680,two_step_task_legacy,2022.2.4,Win32,60.34638827,11,learning,0,resources/alien1_norm.png,0.3,resources/alien2_norm.png,0.7,TRUE,TRUE,3,0.681590532,red,m,0.4278,alien1,TRUE,3,0.583567219,139,0,0.3,x,0.756,0,285,285,285,1,0.3,0.7,0.6,0.4,FALSE,,,,,,,,,,,,,,,,,,,,,,,,,,,,,,,,,
GOSH_A15,2023-11-10_13h33.02.680,two_step_task_legacy,2022.2.4,Win32,60.34638827,11,learning,0,resources/alien1_norm.png,0.3,resources/alien2_norm.png,0.7,TRUE,TRUE,3,0.433577101,red,m,0.3402,alien2,TRUE,2,0.592034867,140,1,0.7,m,0.3845,0,286,286,286,1,0.3,0.7,0.6,0.4,FALSE,,,,,,,,,,,,,,,,,,,,,,,,,,,,,,,,,
GOSH_A15,2023-11-10_13h33.02.680,two_step_task_legacy,2022.2.4,Win32,60.34638827,11,learning,0,resources/alien1_norm.png,0.3,resources/alien2_norm.png,0.7,TRUE,TRUE,3,0.286213599,red,m,0.3918,alien2,TRUE,2,0.314064331,141,1,0.7,m,0.3678,0,287,287,287,1,0.3,0.7,0.6,0.4,FALSE,,,,,,,,,,,,,,,,,,,,,,,,,,,,,,,,,
GOSH_A15,2023-11-10_13h33.02.680,two_step_task_legacy,2022.2.4,Win32,60.34638827,11,learning,0,resources/alien1_norm.png,0.3,resources/alien2_norm.png,0.7,TRUE,TRUE,3,0.538657283,red,m,0.9907,alien2,TRUE,2,0.140697652,142,1,0.7,m,0.5874,0,288,288,288,1,0.3,0.7,0.6,0.4,FALSE,,,,,,,,,,,,,,,,,,,,,,,,,,,,,,,,,
