participant,date,expName,psychopyVersion,OS,frameRate,payoff_list,phase,rare_transition,left_alien,left_probabilty,right_alien,right_probabilty,select_sp,show_alien,rocket_trans,rand_sp,planet,key_resp_exp.keys,key_resp_exp.rt,chosen_alien,select_alien,transmoney,rand_money,totalgold,trialgain,probs,key_resp_exp_alien.keys,key_resp_exp_alien.rt,loop_exp.thisRepN,loop_exp.thisTrialN,loop_exp.thisN,loop_exp.thisIndex,loop_exp.ran,p1,p2,p3,p4,flip_sides,static_probability_left,static_probability_right,key_resp_probe.keys,key_resp_probe.rt,accuracy,probe_loop.thisRepN,probe_loop.thisTrialN,probe_loop.thisN,probe_loop.thisIndex,probe_loop.ran,probe_la,probe_ra,key_resp.keys,key_resp.rt,slider.response,slider.rt,post_loop.thisRepN,post_loop.thisTrialN,post_loop.thisN,post_loop.thisIndex,post_loop.ran,text_up,pos_text_up,text_down,pos_img_left_up,left_up_img,right_up_img,left_down_img_1,left_down_img_2,right_down_img_1,right_down_img_2,size,show_slider
GOSH_A14,2023-11-10_13h28.56.287,two_step_task_legacy,2022.2.4,Win32,59.97361161,,,,,,,,,,,,,,,,,,,,,,,,,,,,,,,,,,,,,,,,,,,,,,,,,,,,,,,,,,,,,,,,,,
GOSH_A14,2023-11-10_13h28.56.287,two_step_task_legacy,2022.2.4,Win32,59.97361161,,,,,,,,,,,,,,,,,,,,,,,,,,,,,,,,,,,,,,,,,,,,,,,,,,,,,,,,,,,,,,,,,,
GOSH_A14,2023-11-10_13h28.56.287,two_step_task_legacy,2022.2.4,Win32,59.97361161,,,,,,,,,,,,,,,,,,,,,,,,,,,,,,,,,,,,,,,,,,,,,,,,,,,,,,,,,,,,,,,,,,
GOSH_A14,2023-11-10_13h28.56.287,two_step_task_legacy,2022.2.4,Win32,59.97361161,,,,,,,,,,,,,,,,,,,,,,,,,,,,,,,,,,,,,,,,,,,,,,,,,,,,,,,,,,,,,,,,,,
GOSH_A14,2023-11-10_13h28.56.287,two_step_task_legacy,2022.2.4,Win32,59.97361161,,,,,,,,,,,,,,,,,,,,,,,,,,,,,,,,,,,,,,,,,,,,,,,,,,,,,,,,,,,,,,,,,,
GOSH_A14,2023-11-10_13h28.56.287,two_step_task_legacy,2022.2.4,Win32,59.97361161,,,,,,,,,,,,,,,,,,,,,,,,,,,,,,,,,,,,,,,,,,,,,,,,,,,,,,,,,,,,,,,,,,
GOSH_A14,2023-11-10_13h28.56.287,two_step_task_legacy,2022.2.4,Win32,59.97361161,,,,,,,,,,,,,,,,,,,,,,,,,,,,,,,,,,,,,,,,,,,,,,,,,,,,,,,,,,,,,,,,,,
GOSH_A14,2023-11-10_13h28.56.287,two_step_task_legacy,2022.2.4,Win32,59.97361161,,,,,,,,,,,,,,,,,,,,,,,,,,,,,,,,,,,,,,,,,,,,,,,,,,,,,,,,,,,,,,,,,,
GOSH_A14,2023-11-10_13h28.56.287,two_step_task_legacy,2022.2.4,Win32,59.97361161,,,,,,,,,,,,,,,,,,,,,,,,,,,,,,,,,,,,,,,,,,,,,,,,,,,,,,,,,,,,,,,,,,
GOSH_A14,2023-11-10_13h28.56.287,two_step_task_legacy,2022.2.4,Win32,59.97361161,,,,,,,,,,,,,,,,,,,,,,,,,,,,,,,,,,,,,,,,,,,,,,,,,,,,,,,,,,,,,,,,,,
GOSH_A14,2023-11-10_13h28.56.287,two_step_task_legacy,2022.2.4,Win32,59.97361161,,,,,,,,,,,,,,,,,,,,,,,,,,,,,,,,,,,,,,,,,,,,,,,,,,,,,,,,,,,,,,,,,,
GOSH_A14,2023-11-10_13h28.56.287,two_step_task_legacy,2022.2.4,Win32,59.97361161,42,learning,1,resources/alien1_norm.png,0.592919234,resources/alien2_norm.png,0.725900905,TRUE,TRUE,3,0.942203698,red,x,1.5985,alien1,TRUE,3,0.994797372,0,0,0.592919234,x,1.4436,0,0,0,0,1,0.592919234,0.725900905,0.443858228,0.27950747,FALSE,,,,,,,,,,,,,,,,,,,,,,,,,,,,,,,,,
GOSH_A14,2023-11-10_13h28.56.287,two_step_task_legacy,2022.2.4,Win32,59.97361161,42,learning,0,resources/alien3_norm.png,0.45423091,resources/alien4_norm.png,0.295972889,TRUE,TRUE,2,0.57781942,purple,x,0.729,alien4,TRUE,3,0.302826539,0,0,0.295972889,m,2.4017,0,1,1,1,1,0.59679033,0.744384228,0.45423091,0.295972889,FALSE,,,,,,,,,,,,,,,,,,,,,,,,,,,,,,,,,
GOSH_A14,2023-11-10_13h28.56.287,two_step_task_legacy,2022.2.4,Win32,59.97361161,42,learning,0,resources/alien3_norm.png,0.455634511,resources/alien4_norm.png,0.31700386,TRUE,TRUE,2,0.178130383,purple,x,0.6285,alien3,TRUE,3,0.756244615,0,0,0.455634511,x,0.9634,0,2,2,2,1,0.60177345,0.733574025,0.455634511,0.31700386,FALSE,,,,,,,,,,,,,,,,,,,,,,,,,,,,,,,,,
GOSH_A14,2023-11-10_13h28.56.287,two_step_task_legacy,2022.2.4,Win32,59.97361161,42,learning,0,resources/alien1_norm.png,0.575786997,resources/alien2_norm.png,0.736493304,TRUE,TRUE,3,0.394491259,red,m,1.7941,alien2,TRUE,2,0.262027013,1,1,0.736493304,m,1.0575,0,3,3,3,1,0.575786997,0.736493304,0.471841934,0.31795339,FALSE,,,,,,,,,,,,,,,,,,,,,,,,,,,,,,,,,
GOSH_A14,2023-11-10_13h28.56.287,two_step_task_legacy,2022.2.4,Win32,59.97361161,42,learning,1,resources/alien3_norm.png,0.442864037,resources/alien4_norm.png,0.314743689,TRUE,TRUE,2,0.938814979,purple,m,0.5134,alien4,TRUE,3,0.571967021,1,0,0.314743689,m,1.315,0,4,4,4,1,0.567847603,0.732422245,0.442864037,0.314743689,FALSE,,,,,,,,,,,,,,,,,,,,,,,,,,,,,,,,,
GOSH_A14,2023-11-10_13h28.56.287,two_step_task_legacy,2022.2.4,Win32,59.97361161,42,learning,1,,,,,FALSE,FALSE,3,0.911049788,purple,,,,,,,,,,,,0,5,5,5,1,0.613520007,0.719024184,0.425542419,0.331932433,TRUE,,,,,,,,,,,,,,,,,,,,,,,,,,,,,,,,,
GOSH_A14,2023-11-10_13h28.56.287,two_step_task_legacy,2022.2.4,Win32,59.97361161,42,learning,0,resources/alien4_norm.png,0.335203637,resources/alien3_norm.png,0.45882479,TRUE,TRUE,2,0.469233038,purple,x,0.688,alien3,TRUE,3,0.857611929,1,0,0.45882479,m,1.6572,0,6,6,6,1,0.646413289,0.703346131,0.45882479,0.335203637,TRUE,,,,,,,,,,,,,,,,,,,,,,,,,,,,,,,,,
GOSH_A14,2023-11-10_13h28.56.287,two_step_task_legacy,2022.2.4,Win32,59.97361161,42,learning,0,resources/alien1_norm.png,0.656173784,resources/alien2_norm.png,0.720597765,TRUE,TRUE,3,0.145842973,red,m,0.6442,alien2,TRUE,3,0.91430069,1,0,0.720597765,m,0.8392,0,7,7,7,1,0.656173784,0.720597765,0.470030307,0.317344228,FALSE,,,,,,,,,,,,,,,,,,,,,,,,,,,,,,,,,
GOSH_A14,2023-11-10_13h28.56.287,two_step_task_legacy,2022.2.4,Win32,59.97361161,42,learning,0,resources/alien1_norm.png,0.679642094,resources/alien2_norm.png,0.740934325,TRUE,TRUE,3,0.478439892,red,m,0.3615,alien2,TRUE,3,0.812858612,1,0,0.740934325,m,0.4164,0,8,8,8,1,0.679642094,0.740934325,0.484620776,0.274606094,FALSE,,,,,,,,,,,,,,,,,,,,,,,,,,,,,,,,,
GOSH_A14,2023-11-10_13h28.56.287,two_step_task_legacy,2022.2.4,Win32,59.97361161,42,learning,1,resources/alien4_norm.png,0.279361174,resources/alien3_norm.png,0.493984152,TRUE,TRUE,2,0.831730782,purple,m,0.538,alien4,TRUE,3,0.671619854,1,0,0.279361174,x,1.11,0,9,9,9,1,0.688180407,0.689489059,0.493984152,0.279361174,TRUE,,,,,,,,,,,,,,,,,,,,,,,,,,,,,,,,,
GOSH_A14,2023-11-10_13h28.56.287,two_step_task_legacy,2022.2.4,Win32,59.97361161,42,learning,1,resources/alien3_norm.png,0.483038561,resources/alien4_norm.png,0.282942862,TRUE,TRUE,2,0.721554134,purple,m,1.019,alien4,TRUE,3,0.941987978,1,0,0.282942862,m,1.4258,0,10,10,10,1,0.722256697,0.672474435,0.483038561,0.282942862,FALSE,,,,,,,,,,,,,,,,,,,,,,,,,,,,,,,,,
GOSH_A14,2023-11-10_13h28.56.287,two_step_task_legacy,2022.2.4,Win32,59.97361161,42,learning,0,resources/alien2_norm.png,0.692623887,resources/alien1_norm.png,0.684969653,TRUE,TRUE,3,0.525264122,red,m,0.3511,alien2,TRUE,2,0.314785737,2,1,0.692623887,x,1.0543,0,11,11,11,1,0.684969653,0.692623887,0.510853538,0.259019373,TRUE,,,,,,,,,,,,,,,,,,,,,,,,,,,,,,,,,
GOSH_A14,2023-11-10_13h28.56.287,two_step_task_legacy,2022.2.4,Win32,59.97361161,42,learning,1,resources/alien3_norm.png,0.479761531,resources/alien4_norm.png,0.255717844,TRUE,TRUE,2,0.731190733,purple,m,0.5393,alien3,TRUE,2,0.351341569,3,1,0.479761531,x,1.2665,0,12,12,12,1,0.659633046,0.715817289,0.479761531,0.255717844,FALSE,,,,,,,,,,,,,,,,,,,,,,,,,,,,,,,,,
GOSH_A14,2023-11-10_13h28.56.287,two_step_task_legacy,2022.2.4,Win32,59.97361161,42,learning,0,resources/alien1_norm.png,0.640778901,resources/alien2_norm.png,0.746070273,TRUE,TRUE,3,0.145165179,red,m,0.726,alien2,TRUE,3,0.887147978,3,0,0.746070273,m,0.8455,0,13,13,13,1,0.640778901,0.746070273,0.486310925,0.298984932,FALSE,,,,,,,,,,,,,,,,,,,,,,,,,,,,,,,,,
GOSH_A14,2023-11-10_13h28.56.287,two_step_task_legacy,2022.2.4,Win32,59.97361161,42,learning,0,resources/alien3_norm.png,0.483221717,resources/alien4_norm.png,0.292136448,TRUE,TRUE,2,0.157948963,purple,x,0.817,alien3,TRUE,3,0.95572868,3,0,0.483221717,x,1.7876,0,14,14,14,1,0.609843847,0.745244975,0.483221717,0.292136448,FALSE,,,,,,,,,,,,,,,,,,,,,,,,,,,,,,,,,
GOSH_A14,2023-11-10_13h28.56.287,two_step_task_legacy,2022.2.4,Win32,59.97361161,42,learning,0,resources/alien2_norm.png,0.742194192,resources/alien1_norm.png,0.647958318,TRUE,TRUE,3,0.162496562,red,m,0.6299,alien2,TRUE,3,0.90940931,3,0,0.742194192,x,0.8992,0,15,15,15,1,0.647958318,0.742194192,0.475561931,0.315615459,TRUE,,,,,,,,,,,,,,,,,,,,,,,,,,,,,,,,,
GOSH_A14,2023-11-10_13h28.56.287,two_step_task_legacy,2022.2.4,Win32,59.97361161,42,learning,0,resources/alien2_norm.png,0.723966215,resources/alien1_norm.png,0.645843171,TRUE,TRUE,3,0.246109842,red,m,0.7042,alien2,TRUE,2,0.013156275,4,1,0.723966215,x,0.5369,0,16,16,16,1,0.645843171,0.723966215,0.453043104,0.348756417,TRUE,,,,,,,,,,,,,,,,,,,,,,,,,,,,,,,,,
GOSH_A14,2023-11-10_13h28.56.287,two_step_task_legacy,2022.2.4,Win32,59.97361161,42,learning,0,resources/alien2_norm.png,0.722635815,resources/alien1_norm.png,0.692166841,TRUE,TRUE,3,0.62410541,red,m,0.4122,alien2,TRUE,3,0.818462885,4,0,0.722635815,x,0.3872,0,17,17,17,1,0.692166841,0.722635815,0.463953484,0.34175623,TRUE,,,,,,,,,,,,,,,,,,,,,,,,,,,,,,,,,
GOSH_A14,2023-11-10_13h28.56.287,two_step_task_legacy,2022.2.4,Win32,59.97361161,42,learning,0,resources/alien2_norm.png,0.731280491,resources/alien1_norm.png,0.705363788,TRUE,TRUE,3,0.14352124,red,m,0.5395,alien2,TRUE,2,0.119318118,5,1,0.731280491,x,0.5848,0,18,18,18,1,0.705363788,0.731280491,0.44983954,0.361794708,TRUE,,,,,,,,,,,,,,,,,,,,,,,,,,,,,,,,,
GOSH_A14,2023-11-10_13h28.56.287,two_step_task_legacy,2022.2.4,Win32,59.97361161,42,learning,0,resources/alien2_norm.png,0.731469643,resources/alien1_norm.png,0.638524244,TRUE,TRUE,3,0.375639123,red,m,0.3176,alien2,TRUE,3,0.869339421,5,0,0.731469643,x,0.4928,0,19,19,19,1,0.638524244,0.731469643,0.432081966,0.373358192,TRUE,,,,,,,,,,,,,,,,,,,,,,,,,,,,,,,,,
GOSH_A14,2023-11-10_13h28.56.287,two_step_task_legacy,2022.2.4,Win32,59.97361161,42,learning,0,resources/alien1_norm.png,0.6317315,resources/alien2_norm.png,0.722503558,TRUE,TRUE,3,0.318658225,red,m,0.3615,alien2,TRUE,3,0.895941903,5,0,0.722503558,m,0.767,0,20,20,20,1,0.6317315,0.722503558,0.440889844,0.370049194,FALSE,,,,,,,,,,,,,,,,,,,,,,,,,,,,,,,,,
GOSH_A14,2023-11-10_13h28.56.287,two_step_task_legacy,2022.2.4,Win32,59.97361161,42,learning,1,resources/alien4_norm.png,0.385190721,resources/alien3_norm.png,0.444949016,TRUE,TRUE,2,0.940543087,purple,m,0.3959,alien3,TRUE,2,0.033781304,6,1,0.444949016,m,1.9789,0,21,21,21,1,0.644665474,0.721895684,0.444949016,0.385190721,TRUE,,,,,,,,,,,,,,,,,,,,,,,,,,,,,,,,,
GOSH_A14,2023-11-10_13h28.56.287,two_step_task_legacy,2022.2.4,Win32,59.97361161,42,learning,0,resources/alien2_norm.png,0.705702366,resources/alien1_norm.png,0.666624831,TRUE,TRUE,3,0.4727332,red,m,0.4227,alien2,TRUE,2,0.388756045,7,1,0.705702366,x,0.6418,0,22,22,22,1,0.666624831,0.705702366,0.41870989,0.352113387,TRUE,,,,,,,,,,,,,,,,,,,,,,,,,,,,,,,,,
GOSH_A14,2023-11-10_13h28.56.287,two_step_task_legacy,2022.2.4,Win32,59.97361161,42,learning,0,resources/alien2_norm.png,0.678602803,resources/alien1_norm.png,0.664096591,TRUE,TRUE,3,0.546493717,red,m,0.3564,alien2,TRUE,3,0.716507241,7,0,0.678602803,x,0.4538,0,23,23,23,1,0.664096591,0.678602803,0.465073071,0.307119567,TRUE,,,,,,,,,,,,,,,,,,,,,,,,,,,,,,,,,
GOSH_A14,2023-11-10_13h28.56.287,two_step_task_legacy,2022.2.4,Win32,59.97361161,42,learning,0,resources/alien2_norm.png,0.666643436,resources/alien1_norm.png,0.680750687,TRUE,TRUE,3,0.462809717,red,m,0.3029,alien2,TRUE,2,0.385180669,8,1,0.666643436,x,0.5397,0,24,24,24,1,0.680750687,0.666643436,0.491099525,0.327636045,TRUE,,,,,,,,,,,,,,,,,,,,,,,,,,,,,,,,,
GOSH_A14,2023-11-10_13h28.56.287,two_step_task_legacy,2022.2.4,Win32,59.97361161,42,learning,1,resources/alien3_norm.png,0.515332064,resources/alien4_norm.png,0.339488743,TRUE,TRUE,2,0.887055274,purple,m,0.3455,alien3,TRUE,2,0.446461314,9,1,0.515332064,x,0.6934,0,25,25,25,1,0.721158618,0.678938875,0.515332064,0.339488743,FALSE,,,,,,,,,,,,,,,,,,,,,,,,,,,,,,,,,
GOSH_A14,2023-11-10_13h28.56.287,two_step_task_legacy,2022.2.4,Win32,59.97361161,42,learning,1,resources/alien1_norm.png,0.726141219,resources/alien2_norm.png,0.688257877,TRUE,TRUE,3,0.933013618,red,x,1.2182,alien2,TRUE,2,0.210248549,10,1,0.688257877,m,0.7274,0,26,26,26,1,0.726141219,0.688257877,0.536516343,0.306057792,FALSE,,,,,,,,,,,,,,,,,,,,,,,,,,,,,,,,,
GOSH_A14,2023-11-10_13h28.56.287,two_step_task_legacy,2022.2.4,Win32,59.97361161,42,learning,1,resources/alien1_norm.png,0.73348975,resources/alien2_norm.png,0.708654251,TRUE,TRUE,3,0.785519489,red,x,0.4059,alien2,TRUE,2,0.345474081,11,1,0.708654251,m,0.6541,0,27,27,27,1,0.73348975,0.708654251,0.586460321,0.324762577,FALSE,,,,,,,,,,,,,,,,,,,,,,,,,,,,,,,,,
GOSH_A14,2023-11-10_13h28.56.287,two_step_task_legacy,2022.2.4,Win32,59.97361161,42,learning,0,resources/alien4_norm.png,0.324394061,resources/alien3_norm.png,0.560037831,TRUE,TRUE,2,0.534519327,purple,x,0.3008,alien3,TRUE,3,0.83807278,11,0,0.560037831,m,0.7743,0,28,28,28,1,0.741945791,0.695447607,0.560037831,0.324394061,TRUE,,,,,,,,,,,,,,,,,,,,,,,,,,,,,,,,,
GOSH_A14,2023-11-10_13h28.56.287,two_step_task_legacy,2022.2.4,Win32,59.97361161,42,learning,0,resources/alien4_norm.png,0.324567173,resources/alien3_norm.png,0.536509411,TRUE,TRUE,2,0.220553684,purple,x,0.3118,alien3,TRUE,2,0.081822869,12,1,0.536509411,m,0.6381,0,29,29,29,1,0.741235567,0.647184722,0.536509411,0.324567173,TRUE,,,,,,,,,,,,,,,,,,,,,,,,,,,,,,,,,
GOSH_A14,2023-11-10_13h28.56.287,two_step_task_legacy,2022.2.4,Win32,59.97361161,42,learning,1,resources/alien2_norm.png,0.682287617,resources/alien1_norm.png,0.711120899,TRUE,TRUE,3,0.827608943,red,x,0.3554,alien2,TRUE,2,0.642544435,13,1,0.682287617,x,0.6835,0,30,30,30,1,0.711120899,0.682287617,0.531370322,0.374347067,TRUE,,,,,,,,,,,,,,,,,,,,,,,,,,,,,,,,,
GOSH_A14,2023-11-10_13h28.56.287,two_step_task_legacy,2022.2.4,Win32,59.97361161,42,learning,0,resources/alien3_norm.png,0.531256282,resources/alien4_norm.png,0.366194808,TRUE,TRUE,2,0.316385168,purple,x,0.2832,alien3,TRUE,2,0.22208569,14,1,0.531256282,x,0.8204,0,31,31,31,1,0.703930664,0.670612165,0.531256282,0.366194808,FALSE,,,,,,,,,,,,,,,,,,,,,,,,,,,,,,,,,
GOSH_A14,2023-11-10_13h28.56.287,two_step_task_legacy,2022.2.4,Win32,59.97361161,42,learning,0,resources/alien3_norm.png,0.520215803,resources/alien4_norm.png,0.386285095,TRUE,TRUE,2,0.585546969,purple,x,0.3146,alien3,TRUE,2,0.254022039,15,1,0.520215803,x,0.6124,0,32,32,32,1,0.747483385,0.676785204,0.520215803,0.386285095,FALSE,,,,,,,,,,,,,,,,,,,,,,,,,,,,,,,,,
GOSH_A14,2023-11-10_13h28.56.287,two_step_task_legacy,2022.2.4,Win32,59.97361161,42,learning,0,resources/alien3_norm.png,0.524958272,resources/alien4_norm.png,0.407380993,TRUE,TRUE,2,0.240220498,purple,x,0.2891,alien3,TRUE,2,0.180392661,16,1,0.524958272,x,0.3564,0,33,33,33,1,0.74387237,0.641874978,0.524958272,0.407380993,FALSE,,,,,,,,,,,,,,,,,,,,,,,,,,,,,,,,,
GOSH_A14,2023-11-10_13h28.56.287,two_step_task_legacy,2022.2.4,Win32,59.97361161,42,learning,0,resources/alien4_norm.png,0.430053027,resources/alien3_norm.png,0.501933636,TRUE,TRUE,2,0.571215213,purple,x,0.2833,alien4,TRUE,3,0.894680899,16,0,0.430053027,x,0.4185,0,34,34,34,1,0.73213969,0.647869521,0.501933636,0.430053027,TRUE,,,,,,,,,,,,,,,,,,,,,,,,,,,,,,,,,
GOSH_A14,2023-11-10_13h28.56.287,two_step_task_legacy,2022.2.4,Win32,59.97361161,42,learning,0,resources/alien4_norm.png,0.408820591,resources/alien3_norm.png,0.485008195,TRUE,TRUE,2,0.516661638,purple,x,0.3614,alien3,TRUE,2,0.035375882,17,1,0.485008195,m,0.4634,0,35,35,35,1,0.735960532,0.661804792,0.485008195,0.408820591,TRUE,,,,,,,,,,,,,,,,,,,,,,,,,,,,,,,,,
GOSH_A14,2023-11-10_13h28.56.287,two_step_task_legacy,2022.2.4,Win32,59.97361161,42,learning,0,resources/alien3_norm.png,0.465983699,resources/alien4_norm.png,0.402459854,TRUE,TRUE,2,0.171591002,purple,x,0.45,alien3,TRUE,2,0.366132319,18,1,0.465983699,x,0.5712,0,36,36,36,1,0.729661989,0.677064408,0.465983699,0.402459854,FALSE,,,,,,,,,,,,,,,,,,,,,,,,,,,,,,,,,
GOSH_A14,2023-11-10_13h28.56.287,two_step_task_legacy,2022.2.4,Win32,59.97361161,42,learning,0,resources/alien4_norm.png,0.406162253,resources/alien3_norm.png,0.509954334,TRUE,TRUE,2,0.21226266,purple,x,0.3038,alien3,TRUE,3,0.551061261,18,0,0.509954334,m,0.6292,0,37,37,37,1,0.707923169,0.652538123,0.509954334,0.406162253,TRUE,,,,,,,,,,,,,,,,,,,,,,,,,,,,,,,,,
GOSH_A14,2023-11-10_13h28.56.287,two_step_task_legacy,2022.2.4,Win32,59.97361161,42,learning,1,resources/alien1_norm.png,0.694382959,resources/alien2_norm.png,0.673066329,TRUE,TRUE,3,0.971379312,red,x,0.3549,alien2,TRUE,3,0.790271014,18,0,0.673066329,m,0.8751,0,38,38,38,1,0.694382959,0.673066329,0.53675196,0.433014543,FALSE,,,,,,,,,,,,,,,,,,,,,,,,,,,,,,,,,
GOSH_A14,2023-11-10_13h28.56.287,two_step_task_legacy,2022.2.4,Win32,59.97361161,42,learning,0,resources/alien3_norm.png,0.535677589,resources/alien4_norm.png,0.456735874,TRUE,TRUE,2,0.456527623,purple,x,0.4771,alien3,TRUE,3,0.720041278,18,0,0.535677589,x,0.4841,0,39,39,39,1,0.686824957,0.662671924,0.535677589,0.456735874,FALSE,,,,,,,,,,,,,,,,,,,,,,,,,,,,,,,,,
GOSH_A14,2023-11-10_13h28.56.287,two_step_task_legacy,2022.2.4,Win32,59.97361161,42,learning,0,resources/alien4_norm.png,0.444802595,resources/alien3_norm.png,0.514353351,TRUE,TRUE,2,0.657915162,purple,x,0.4182,alien3,TRUE,2,0.44887893,19,1,0.514353351,m,0.821,0,40,40,40,1,0.701252715,0.683582687,0.514353351,0.444802595,TRUE,,,,,,,,,,,,,,,,,,,,,,,,,,,,,,,,,
GOSH_A14,2023-11-10_13h28.56.287,two_step_task_legacy,2022.2.4,Win32,59.97361161,42,learning,0,resources/alien3_norm.png,0.529381359,resources/alien4_norm.png,0.474099865,TRUE,TRUE,2,0.501922531,purple,x,0.3059,alien3,TRUE,2,0.213397952,20,1,0.529381359,x,0.6018,0,41,41,41,1,0.735883559,0.659710527,0.529381359,0.474099865,FALSE,,,,,,,,,,,,,,,,,,,,,,,,,,,,,,,,,
GOSH_A14,2023-11-10_13h28.56.287,two_step_task_legacy,2022.2.4,Win32,59.97361161,42,learning,0,resources/alien3_norm.png,0.569051894,resources/alien4_norm.png,0.499578503,TRUE,TRUE,2,0.079961852,purple,x,0.401,alien3,TRUE,3,0.699238964,20,0,0.569051894,x,0.5428,0,42,42,42,1,0.698407408,0.656265655,0.569051894,0.499578503,FALSE,,,,,,,,,,,,,,,,,,,,,,,,,,,,,,,,,
GOSH_A14,2023-11-10_13h28.56.287,two_step_task_legacy,2022.2.4,Win32,59.97361161,42,learning,0,resources/alien4_norm.png,0.517139904,resources/alien3_norm.png,0.558922212,TRUE,TRUE,2,0.441979508,purple,x,0.4043,alien3,TRUE,2,0.331136535,21,1,0.558922212,m,0.5662,0,43,43,43,1,0.7442163,0.635050852,0.558922212,0.517139904,TRUE,,,,,,,,,,,,,,,,,,,,,,,,,,,,,,,,,
GOSH_A14,2023-11-10_13h28.56.287,two_step_task_legacy,2022.2.4,Win32,59.97361161,42,learning,0,resources/alien4_norm.png,0.563824608,resources/alien3_norm.png,0.608414695,TRUE,TRUE,2,0.229749813,purple,x,0.5247,alien3,TRUE,3,0.777951439,21,0,0.608414695,m,0.5054,0,44,44,44,1,0.747567615,0.608699053,0.608414695,0.563824608,TRUE,,,,,,,,,,,,,,,,,,,,,,,,,,,,,,,,,
GOSH_A14,2023-11-10_13h28.56.287,two_step_task_legacy,2022.2.4,Win32,59.97361161,42,learning,0,resources/alien3_norm.png,0.592031585,resources/alien4_norm.png,0.577261292,TRUE,TRUE,2,0.34864779,purple,x,0.3377,alien3,TRUE,3,0.741502302,21,0,0.592031585,x,0.5053,0,45,45,45,1,0.732850337,0.616463301,0.592031585,0.577261292,FALSE,,,,,,,,,,,,,,,,,,,,,,,,,,,,,,,,,
GOSH_A14,2023-11-10_13h28.56.287,two_step_task_legacy,2022.2.4,Win32,59.97361161,42,learning,0,resources/alien3_norm.png,0.586579464,resources/alien4_norm.png,0.616425469,TRUE,TRUE,2,0.033308258,purple,x,0.2907,alien4,TRUE,2,0.007346953,22,1,0.616425469,m,0.9058,0,46,46,46,1,0.715828642,0.648648698,0.586579464,0.616425469,FALSE,,,,,,,,,,,,,,,,,,,,,,,,,,,,,,,,,
GOSH_A14,2023-11-10_13h28.56.287,two_step_task_legacy,2022.2.4,Win32,59.97361161,42,learning,1,resources/alien2_norm.png,0.648684771,resources/alien1_norm.png,0.701654265,TRUE,TRUE,3,0.966546773,red,x,0.3464,alien2,TRUE,2,0.574993658,23,1,0.648684771,x,1.3707,0,47,47,47,1,0.701654265,0.648684771,0.570981347,0.613264448,TRUE,,,,,,,,,,,,,,,,,,,,,,,,,,,,,,,,,
GOSH_A14,2023-11-10_13h28.56.287,two_step_task_legacy,2022.2.4,Win32,59.97361161,42,learning,1,resources/alien2_norm.png,0.628861012,resources/alien1_norm.png,0.732315949,TRUE,TRUE,3,0.725725396,red,x,0.4119,alien2,TRUE,3,0.665481866,23,0,0.628861012,x,0.8019,0,48,48,48,1,0.732315949,0.628861012,0.623729858,0.633249326,TRUE,,,,,,,,,,,,,,,,,,,,,,,,,,,,,,,,,
GOSH_A14,2023-11-10_13h28.56.287,two_step_task_legacy,2022.2.4,Win32,59.97361161,42,learning,0,resources/alien3_norm.png,0.63551621,resources/alien4_norm.png,0.647257539,TRUE,TRUE,2,0.375360543,purple,x,0.3163,alien4,TRUE,2,0.515529071,24,1,0.647257539,m,0.7874,0,49,49,49,1,0.743730679,0.568101573,0.63551621,0.647257539,FALSE,,,,,,,,,,,,,,,,,,,,,,,,,,,,,,,,,
GOSH_A14,2023-11-10_13h28.56.287,two_step_task_legacy,2022.2.4,Win32,59.97361161,42,learning,1,resources/alien2_norm.png,0.572548826,resources/alien1_norm.png,0.742405846,TRUE,TRUE,3,0.829380061,red,x,0.535,alien1,TRUE,2,0.507679205,25,1,0.742405846,m,1.2229,0,50,50,50,1,0.742405846,0.572548826,0.591204146,0.709977629,TRUE,,,,,,,,,,,,,,,,,,,,,,,,,,,,,,,,,
GOSH_A14,2023-11-10_13h28.56.287,two_step_task_legacy,2022.2.4,Win32,59.97361161,42,learning,0,resources/alien4_norm.png,0.744945783,resources/alien3_norm.png,0.575730319,TRUE,TRUE,2,0.424701002,purple,x,0.334,alien4,TRUE,2,0.716369432,26,1,0.744945783,x,0.8162,0,51,51,51,1,0.731656858,0.573059605,0.575730319,0.744945783,TRUE,,,,,,,,,,,,,,,,,,,,,,,,,,,,,,,,,
GOSH_A14,2023-11-10_13h28.56.287,two_step_task_legacy,2022.2.4,Win32,59.97361161,42,learning,0,resources/alien3_norm.png,0.559049285,resources/alien4_norm.png,0.725062463,TRUE,TRUE,2,0.01633428,purple,x,0.2791,alien4,TRUE,2,0.389463045,27,1,0.725062463,m,0.8294,0,52,52,52,1,0.722202375,0.60094317,0.559049285,0.725062463,FALSE,,,,,,,,,,,,,,,,,,,,,,,,,,,,,,,,,
GOSH_A14,2023-11-10_13h28.56.287,two_step_task_legacy,2022.2.4,Win32,59.97361161,42,learning,1,resources/alien1_norm.png,0.747378689,resources/alien2_norm.png,0.616272459,TRUE,TRUE,3,0.773372726,red,x,0.4001,alien1,TRUE,2,0.530980603,28,1,0.747378689,x,1.2562,0,53,53,53,1,0.747378689,0.616272459,0.57552337,0.745893196,FALSE,,,,,,,,,,,,,,,,,,,,,,,,,,,,,,,,,
GOSH_A14,2023-11-10_13h28.56.287,two_step_task_legacy,2022.2.4,Win32,59.97361161,42,learning,1,resources/alien2_norm.png,0.603674478,resources/alien1_norm.png,0.685531181,TRUE,TRUE,3,0.857413959,red,x,0.5043,alien1,TRUE,3,0.77700336,28,0,0.685531181,m,0.7003,0,54,54,54,1,0.685531181,0.603674478,0.596085384,0.740868649,TRUE,,,,,,,,,,,,,,,,,,,,,,,,,,,,,,,,,
GOSH_A14,2023-11-10_13h28.56.287,two_step_task_legacy,2022.2.4,Win32,59.97361161,42,learning,0,resources/alien3_norm.png,0.577550956,resources/alien4_norm.png,0.724326154,TRUE,TRUE,2,0.490657017,purple,x,1.0218,alien4,TRUE,3,0.912158409,28,0,0.724326154,m,0.6169,0,55,55,55,1,0.688074556,0.625850557,0.577550956,0.724326154,FALSE,,,,,,,,,,,,,,,,,,,,,,,,,,,,,,,,,
GOSH_A14,2023-11-10_13h28.56.287,two_step_task_legacy,2022.2.4,Win32,59.97361161,42,learning,1,resources/alien4_norm.png,0.728943976,resources/alien3_norm.png,0.584079294,TRUE,TRUE,2,0.802999657,purple,m,0.5843,alien4,TRUE,2,0.517439202,29,1,0.728943976,x,0.4864,0,56,56,56,1,0.663246753,0.617190689,0.584079294,0.728943976,TRUE,,,,,,,,,,,,,,,,,,,,,,,,,,,,,,,,,
GOSH_A14,2023-11-10_13h28.56.287,two_step_task_legacy,2022.2.4,Win32,59.97361161,42,learning,0,resources/alien1_norm.png,0.648444122,resources/alien2_norm.png,0.611121997,TRUE,TRUE,3,0.413810268,red,m,0.2853,alien1,TRUE,2,0.307968693,30,1,0.648444122,x,0.9596,0,57,57,57,1,0.648444122,0.611121997,0.578067357,0.749481486,FALSE,,,,,,,,,,,,,,,,,,,,,,,,,,,,,,,,,
GOSH_A14,2023-11-10_13h28.56.287,two_step_task_legacy,2022.2.4,Win32,59.97361161,42,learning,0,resources/alien2_norm.png,0.625101394,resources/alien1_norm.png,0.676622776,TRUE,TRUE,3,0.18037558,red,m,0.3224,alien1,TRUE,2,0.190041699,31,1,0.676622776,m,0.696,0,58,58,58,1,0.676622776,0.625101394,0.598288486,0.721493407,TRUE,,,,,,,,,,,,,,,,,,,,,,,,,,,,,,,,,
GOSH_A14,2023-11-10_13h28.56.287,two_step_task_legacy,2022.2.4,Win32,59.97361161,42,learning,0,resources/alien2_norm.png,0.665800562,resources/alien1_norm.png,0.689847488,TRUE,TRUE,3,0.167951608,red,m,0.3114,alien1,TRUE,2,0.223641293,32,1,0.689847488,m,0.4023,0,59,59,59,1,0.689847488,0.665800562,0.557855925,0.714889988,TRUE,,,,,,,,,,,,,,,,,,,,,,,,,,,,,,,,,
GOSH_A14,2023-11-10_13h28.56.287,two_step_task_legacy,2022.2.4,Win32,59.97361161,42,learning,1,resources/alien3_norm.png,0.531914095,resources/alien4_norm.png,0.6693347,TRUE,TRUE,2,0.885370128,purple,m,0.2839,alien4,TRUE,2,0.040563443,33,1,0.6693347,m,1.0771,0,60,60,60,1,0.717720941,0.648669251,0.531914095,0.6693347,FALSE,,,,,,,,,,,,,,,,,,,,,,,,,,,,,,,,,
GOSH_A14,2023-11-10_13h28.56.287,two_step_task_legacy,2022.2.4,Win32,59.97361161,42,learning,1,resources/alien4_norm.png,0.679727111,resources/alien3_norm.png,0.510276235,TRUE,TRUE,2,0.898024446,purple,m,0.374,alien4,TRUE,3,0.743739166,33,0,0.679727111,x,0.7244,0,61,61,61,1,0.661610946,0.646860561,0.510276235,0.679727111,TRUE,,,,,,,,,,,,,,,,,,,,,,,,,,,,,,,,,
GOSH_A14,2023-11-10_13h28.56.287,two_step_task_legacy,2022.2.4,Win32,59.97361161,42,learning,0,resources/alien1_norm.png,0.656145255,resources/alien2_norm.png,0.627004415,TRUE,TRUE,3,0.264320266,red,m,0.2879,alien1,TRUE,2,0.48394579,34,1,0.656145255,x,0.9291,0,62,62,62,1,0.656145255,0.627004415,0.49869813,0.695042862,FALSE,,,,,,,,,,,,,,,,,,,,,,,,,,,,,,,,,
GOSH_A14,2023-11-10_13h28.56.287,two_step_task_legacy,2022.2.4,Win32,59.97361161,42,learning,0,resources/alien2_norm.png,0.629113125,resources/alien1_norm.png,0.630791729,TRUE,TRUE,3,0.537268006,red,m,0.2884,alien1,TRUE,3,0.710390482,34,0,0.630791729,m,0.6807,0,63,63,63,1,0.630791729,0.629113125,0.54503642,0.72246338,TRUE,,,,,,,,,,,,,,,,,,,,,,,,,,,,,,,,,
GOSH_A14,2023-11-10_13h28.56.287,two_step_task_legacy,2022.2.4,Win32,59.97361161,42,learning,0,resources/alien1_norm.png,0.612540457,resources/alien2_norm.png,0.65370092,TRUE,TRUE,3,0.244241597,red,m,0.2665,alien1,TRUE,2,0.124729011,35,1,0.612540457,x,0.5566,0,64,64,64,1,0.612540457,0.65370092,0.543735631,0.700523395,FALSE,,,,,,,,,,,,,,,,,,,,,,,,,,,,,,,,,
GOSH_A14,2023-11-10_13h28.56.287,two_step_task_legacy,2022.2.4,Win32,59.97361161,42,learning,0,resources/alien1_norm.png,0.59867619,resources/alien2_norm.png,0.683022062,TRUE,TRUE,3,0.634252892,red,m,0.369,alien1,TRUE,2,0.342506518,36,1,0.59867619,x,0.4512,0,65,65,65,1,0.59867619,0.683022062,0.518545963,0.697685388,FALSE,,,,,,,,,,,,,,,,,,,,,,,,,,,,,,,,,
GOSH_A14,2023-11-10_13h28.56.287,two_step_task_legacy,2022.2.4,Win32,59.97361161,42,learning,0,resources/alien2_norm.png,0.674654184,resources/alien1_norm.png,0.625425207,TRUE,TRUE,3,0.498845642,red,m,0.3448,alien1,TRUE,3,0.828452347,36,0,0.625425207,m,0.5542,0,66,66,66,1,0.625425207,0.674654184,0.508248899,0.693832384,TRUE,,,,,,,,,,,,,,,,,,,,,,,,,,,,,,,,,
GOSH_A14,2023-11-10_13h28.56.287,two_step_task_legacy,2022.2.4,Win32,59.97361161,42,learning,0,resources/alien4_norm.png,0.675420829,resources/alien3_norm.png,0.525062901,TRUE,TRUE,2,0.331557035,purple,x,0.4341,alien4,TRUE,3,0.798663413,36,0,0.675420829,x,0.9805,0,67,67,67,1,0.655675286,0.701507056,0.525062901,0.675420829,TRUE,,,,,,,,,,,,,,,,,,,,,,,,,,,,,,,,,
GOSH_A14,2023-11-10_13h28.56.287,two_step_task_legacy,2022.2.4,Win32,59.97361161,42,learning,0,resources/alien2_norm.png,0.67166996,resources/alien1_norm.png,0.637758686,TRUE,TRUE,3,0.59026397,red,m,0.2395,alien1,TRUE,2,0.101678044,37,1,0.637758686,m,0.4553,0,68,68,68,1,0.637758686,0.67166996,0.551839449,0.642448274,TRUE,,,,,,,,,,,,,,,,,,,,,,,,,,,,,,,,,
GOSH_A14,2023-11-10_13h28.56.287,two_step_task_legacy,2022.2.4,Win32,59.97361161,42,learning,0,resources/alien2_norm.png,0.647407293,resources/alien1_norm.png,0.671744386,TRUE,TRUE,3,0.281733605,red,m,0.3666,alien1,TRUE,2,0.62364719,38,1,0.671744386,m,0.4451,0,69,69,69,1,0.671744386,0.647407293,0.548248453,0.640383184,TRUE,,,,,,,,,,,,,,,,,,,,,,,,,,,,,,,,,
GOSH_A14,2023-11-10_13h28.56.287,two_step_task_legacy,2022.2.4,Win32,59.97361161,42,learning,0,resources/alien1_norm.png,0.717480766,resources/alien2_norm.png,0.636657553,TRUE,TRUE,3,0.034358009,red,m,0.3499,alien1,TRUE,2,0.464055882,39,1,0.717480766,x,0.5729,0,70,70,70,1,0.717480766,0.636657553,0.55259829,0.599602124,FALSE,,,,,,,,,,,,,,,,,,,,,,,,,,,,,,,,,
GOSH_A14,2023-11-10_13h28.56.287,two_step_task_legacy,2022.2.4,Win32,59.97361161,42,learning,0,resources/alien2_norm.png,0.636086446,resources/alien1_norm.png,0.700684726,TRUE,TRUE,3,0.432801374,red,m,0.4063,alien1,TRUE,2,0.399472176,40,1,0.700684726,m,0.4853,0,71,71,71,1,0.700684726,0.636086446,0.582043005,0.607966578,TRUE,,,,,,,,,,,,,,,,,,,,,,,,,,,,,,,,,
GOSH_A14,2023-11-10_13h28.56.287,two_step_task_legacy,2022.2.4,Win32,59.97361161,42,learning,1,resources/alien3_norm.png,0.596964849,resources/alien4_norm.png,0.645982736,TRUE,TRUE,2,0.908696398,purple,m,0.3508,alien4,TRUE,2,0.28791115,41,1,0.645982736,m,0.9206,0,72,72,72,1,0.668092692,0.63923175,0.596964849,0.645982736,FALSE,,,,,,,,,,,,,,,,,,,,,,,,,,,,,,,,,
GOSH_A14,2023-11-10_13h28.56.287,two_step_task_legacy,2022.2.4,Win32,59.97361161,42,learning,1,resources/alien4_norm.png,0.611402388,resources/alien3_norm.png,0.599337874,TRUE,TRUE,2,0.956267754,purple,m,0.3648,alien4,TRUE,2,0.313226453,42,1,0.611402388,x,0.9132,0,73,73,73,1,0.686325338,0.660846117,0.599337874,0.611402388,TRUE,,,,,,,,,,,,,,,,,,,,,,,,,,,,,,,,,
GOSH_A14,2023-11-10_13h28.56.287,two_step_task_legacy,2022.2.4,Win32,59.97361161,42,learning,0,resources/alien1_norm.png,0.681522799,resources/alien2_norm.png,0.63603781,TRUE,TRUE,3,0.076382603,red,m,0.4551,alien1,TRUE,2,0.197564893,43,1,0.681522799,x,0.5559,0,74,74,74,1,0.681522799,0.63603781,0.584931769,0.578757794,FALSE,,,,,,,,,,,,,,,,,,,,,,,,,,,,,,,,,
GOSH_A14,2023-11-10_13h28.56.287,two_step_task_legacy,2022.2.4,Win32,59.97361161,42,learning,0,resources/alien2_norm.png,0.668013482,resources/alien1_norm.png,0.694546121,TRUE,TRUE,3,0.449232736,red,m,0.2834,alien1,TRUE,3,0.814734407,43,0,0.694546121,m,0.5395,0,75,75,75,1,0.694546121,0.668013482,0.58633745,0.583999801,TRUE,,,,,,,,,,,,,,,,,,,,,,,,,,,,,,,,,
GOSH_A14,2023-11-10_13h28.56.287,two_step_task_legacy,2022.2.4,Win32,59.97361161,42,learning,0,resources/alien1_norm.png,0.688428203,resources/alien2_norm.png,0.670972145,TRUE,TRUE,3,0.059129199,red,m,0.4445,alien1,TRUE,2,0.218637932,44,1,0.688428203,x,0.6334,0,76,76,76,1,0.688428203,0.670972145,0.618572647,0.58256071,FALSE,,,,,,,,,,,,,,,,,,,,,,,,,,,,,,,,,
GOSH_A14,2023-11-10_13h28.56.287,two_step_task_legacy,2022.2.4,Win32,59.97361161,42,learning,0,resources/alien2_norm.png,0.69222779,resources/alien1_norm.png,0.684514858,TRUE,TRUE,3,0.638556553,red,m,0.3336,alien1,TRUE,3,0.999296,44,0,0.684514858,m,0.5078,0,77,77,77,1,0.684514858,0.69222779,0.611596499,0.567633367,TRUE,,,,,,,,,,,,,,,,,,,,,,,,,,,,,,,,,
GOSH_A14,2023-11-10_13h28.56.287,two_step_task_legacy,2022.2.4,Win32,59.97361161,42,learning,1,resources/alien4_norm.png,0.583935421,resources/alien3_norm.png,0.616008699,TRUE,TRUE,2,0.800877043,purple,m,0.2658,alien4,TRUE,3,0.75710904,44,0,0.583935421,x,0.7504,0,78,78,78,1,0.648201548,0.744148077,0.616008699,0.583935421,TRUE,,,,,,,,,,,,,,,,,,,,,,,,,,,,,,,,,
GOSH_A14,2023-11-10_13h28.56.287,two_step_task_legacy,2022.2.4,Win32,59.97361161,42,learning,0,resources/alien1_norm.png,0.635827969,resources/alien2_norm.png,0.721433206,TRUE,TRUE,3,0.195752888,red,m,0.2442,alien1,TRUE,3,0.935147776,44,0,0.635827969,x,0.4595,0,79,79,79,1,0.635827969,0.721433206,0.64486417,0.552496533,FALSE,,,,,,,,,,,,,,,,,,,,,,,,,,,,,,,,,
GOSH_A14,2023-11-10_13h28.56.287,two_step_task_legacy,2022.2.4,Win32,59.97361161,42,learning,0,resources/alien3_norm.png,0.647788484,resources/alien4_norm.png,0.521841309,TRUE,TRUE,2,0.12311563,purple,x,0.4121,alien4,TRUE,3,0.943015099,44,0,0.521841309,m,0.8337,0,80,80,80,1,0.673456106,0.676189685,0.647788484,0.521841309,FALSE,,,,,,,,,,,,,,,,,,,,,,,,,,,,,,,,,
GOSH_A14,2023-11-10_13h28.56.287,two_step_task_legacy,2022.2.4,Win32,59.97361161,42,learning,0,resources/alien4_norm.png,0.527047195,resources/alien3_norm.png,0.685354512,TRUE,TRUE,2,0.257349096,purple,x,0.5703,alien3,TRUE,2,0.164608551,45,1,0.685354512,m,0.6874,0,81,81,81,1,0.689133456,0.665185929,0.685354512,0.527047195,TRUE,,,,,,,,,,,,,,,,,,,,,,,,,,,,,,,,,
GOSH_A14,2023-11-10_13h28.56.287,two_step_task_legacy,2022.2.4,Win32,59.97361161,42,learning,1,resources/alien4_norm.png,0.536142419,resources/alien3_norm.png,0.729212051,TRUE,TRUE,2,0.949106407,purple,m,0.394,alien3,TRUE,2,0.266654564,46,1,0.729212051,m,0.6543,0,82,82,82,1,0.706821286,0.698886555,0.729212051,0.536142419,TRUE,,,,,,,,,,,,,,,,,,,,,,,,,,,,,,,,,
GOSH_A14,2023-11-10_13h28.56.287,two_step_task_legacy,2022.2.4,Win32,59.97361161,42,learning,0,resources/alien2_norm.png,0.696312699,resources/alien1_norm.png,0.695989226,TRUE,TRUE,3,0.603824517,red,m,0.5374,alien2,TRUE,2,0.620558053,47,1,0.696312699,x,1.4568,0,83,83,83,1,0.695989226,0.696312699,0.743470703,0.523815865,TRUE,,,,,,,,,,,,,,,,,,,,,,,,,,,,,,,,,
GOSH_A14,2023-11-10_13h28.56.287,two_step_task_legacy,2022.2.4,Win32,59.97361161,42,learning,0,resources/alien2_norm.png,0.649733708,resources/alien1_norm.png,0.734701173,TRUE,TRUE,3,0.539909429,red,m,0.3333,alien2,TRUE,2,0.18449357,48,1,0.649733708,x,0.4567,0,84,84,84,1,0.734701173,0.649733708,0.740120038,0.562465929,TRUE,,,,,,,,,,,,,,,,,,,,,,,,,,,,,,,,,
GOSH_A14,2023-11-10_13h28.56.287,two_step_task_legacy,2022.2.4,Win32,59.97361161,42,learning,0,resources/alien1_norm.png,0.685639988,resources/alien2_norm.png,0.614575836,TRUE,TRUE,3,0.172374908,red,m,0.3,alien2,TRUE,2,0.603151631,49,1,0.614575836,m,0.5206,0,85,85,85,1,0.685639988,0.614575836,0.747459119,0.560395165,FALSE,,,,,,,,,,,,,,,,,,,,,,,,,,,,,,,,,
GOSH_A14,2023-11-10_13h28.56.287,two_step_task_legacy,2022.2.4,Win32,59.97361161,42,learning,0,resources/alien2_norm.png,0.635889034,resources/alien1_norm.png,0.747269927,TRUE,TRUE,3,0.662594214,red,m,0.2998,alien2,TRUE,3,0.757840269,49,0,0.635889034,x,0.4997,0,86,86,86,1,0.747269927,0.635889034,0.739747496,0.553950792,TRUE,,,,,,,,,,,,,,,,,,,,,,,,,,,,,,,,,
GOSH_A14,2023-11-10_13h28.56.287,two_step_task_legacy,2022.2.4,Win32,59.97361161,42,learning,0,resources/alien1_norm.png,0.723611405,resources/alien2_norm.png,0.615434995,TRUE,TRUE,3,0.059650468,red,m,0.2878,alien2,TRUE,2,0.564635559,50,1,0.615434995,m,0.5676,0,87,87,87,1,0.723611405,0.615434995,0.720528232,0.540800492,FALSE,,,,,,,,,,,,,,,,,,,,,,,,,,,,,,,,,
GOSH_A14,2023-11-10_13h28.56.287,two_step_task_legacy,2022.2.4,Win32,59.97361161,42,learning,1,resources/alien4_norm.png,0.552648518,resources/alien3_norm.png,0.720139582,TRUE,TRUE,2,0.80941061,purple,m,0.2406,alien3,TRUE,3,0.934077226,50,0,0.720139582,m,1.1619,0,88,88,88,1,0.733565483,0.617571559,0.720139582,0.552648518,TRUE,,,,,,,,,,,,,,,,,,,,,,,,,,,,,,,,,
GOSH_A14,2023-11-10_13h28.56.287,two_step_task_legacy,2022.2.4,Win32,59.97361161,42,learning,0,resources/alien2_norm.png,0.62032434,resources/alien1_norm.png,0.716799535,TRUE,TRUE,3,0.185756095,red,m,0.2537,alien2,TRUE,2,0.086349349,51,1,0.62032434,x,0.5143,0,89,89,89,1,0.716799535,0.62032434,0.710865526,0.525233651,TRUE,,,,,,,,,,,,,,,,,,,,,,,,,,,,,,,,,
GOSH_A14,2023-11-10_13h28.56.287,two_step_task_legacy,2022.2.4,Win32,59.97361161,42,learning,0,resources/alien2_norm.png,0.592138281,resources/alien1_norm.png,0.697708351,TRUE,TRUE,3,0.388375444,red,m,0.2552,alien2,TRUE,2,0.302469756,52,1,0.592138281,x,0.471,0,90,90,90,1,0.697708351,0.592138281,0.707326247,0.477030298,TRUE,,,,,,,,,,,,,,,,,,,,,,,,,,,,,,,,,
GOSH_A14,2023-11-10_13h28.56.287,two_step_task_legacy,2022.2.4,Win32,59.97361161,42,learning,0,resources/alien2_norm.png,0.578162809,resources/alien1_norm.png,0.656811595,TRUE,TRUE,3,0.699031188,red,m,0.2499,alien2,TRUE,2,0.065030805,53,1,0.578162809,x,0.466,0,91,91,91,1,0.656811595,0.578162809,0.693235307,0.485490214,TRUE,,,,,,,,,,,,,,,,,,,,,,,,,,,,,,,,,
GOSH_A14,2023-11-10_13h28.56.287,two_step_task_legacy,2022.2.4,Win32,59.97361161,42,learning,0,resources/alien2_norm.png,0.565150917,resources/alien1_norm.png,0.672837186,TRUE,TRUE,3,0.135167539,red,m,0.357,alien2,TRUE,2,0.408565325,54,1,0.565150917,x,0.4007,0,92,92,92,1,0.672837186,0.565150917,0.702752807,0.435668915,TRUE,,,,,,,,,,,,,,,,,,,,,,,,,,,,,,,,,
GOSH_A14,2023-11-10_13h28.56.287,two_step_task_legacy,2022.2.4,Win32,59.97361161,42,learning,0,resources/alien1_norm.png,0.676148976,resources/alien2_norm.png,0.529168175,TRUE,TRUE,3,0.056367072,red,m,0.2742,alien2,TRUE,2,0.100608527,55,1,0.529168175,m,0.5273,0,93,93,93,1,0.676148976,0.529168175,0.651971234,0.460123955,FALSE,,,,,,,,,,,,,,,,,,,,,,,,,,,,,,,,,
GOSH_A14,2023-11-10_13h28.56.287,two_step_task_legacy,2022.2.4,Win32,59.97361161,42,learning,0,resources/alien1_norm.png,0.635695198,resources/alien2_norm.png,0.550348922,TRUE,TRUE,3,0.293756409,red,m,0.2418,alien2,TRUE,3,0.883398973,55,0,0.550348922,m,0.424,0,94,94,94,1,0.635695198,0.550348922,0.666368314,0.462021783,FALSE,,,,,,,,,,,,,,,,,,,,,,,,,,,,,,,,,
GOSH_A14,2023-11-10_13h28.56.287,two_step_task_legacy,2022.2.4,Win32,59.97361161,42,learning,0,resources/alien1_norm.png,0.64731031,resources/alien2_norm.png,0.540740978,TRUE,TRUE,3,0.103918874,red,m,0.3291,alien2,TRUE,3,0.892479791,55,0,0.540740978,m,0.4002,0,95,95,95,1,0.64731031,0.540740978,0.675864002,0.464566239,FALSE,,,,,,,,,,,,,,,,,,,,,,,,,,,,,,,,,
GOSH_A14,2023-11-10_13h28.56.287,two_step_task_legacy,2022.2.4,Win32,59.97361161,42,learning,1,resources/alien2_norm.png,0.470510182,resources/alien1_norm.png,0.616107931,TRUE,TRUE,3,0.921422014,red,x,0.317,alien2,TRUE,3,0.736787003,55,0,0.470510182,x,0.7511,0,96,96,96,1,0.616107931,0.470510182,0.681668623,0.457390436,TRUE,,,,,,,,,,,,,,,,,,,,,,,,,,,,,,,,,
GOSH_A14,2023-11-10_13h28.56.287,two_step_task_legacy,2022.2.4,Win32,59.97361161,42,learning,1,resources/alien1_norm.png,0.649745482,resources/alien2_norm.png,0.470491496,TRUE,TRUE,3,0.852588234,red,x,0.3049,alien1,TRUE,2,0.218796774,56,1,0.649745482,x,0.8209,0,97,97,97,1,0.649745482,0.470491496,0.680331253,0.515938065,FALSE,,,,,,,,,,,,,,,,,,,,,,,,,,,,,,,,,
GOSH_A14,2023-11-10_13h28.56.287,two_step_task_legacy,2022.2.4,Win32,59.97361161,42,learning,0,resources/alien3_norm.png,0.673122691,resources/alien4_norm.png,0.481141694,TRUE,TRUE,2,0.005091892,purple,x,0.3541,alien3,TRUE,3,0.994714592,56,0,0.673122691,x,0.8664,0,98,98,98,1,0.66691481,0.458699425,0.673122691,0.481141694,FALSE,,,,,,,,,,,,,,,,,,,,,,,,,,,,,,,,,
GOSH_A14,2023-11-10_13h28.56.287,two_step_task_legacy,2022.2.4,Win32,59.97361161,42,learning,1,resources/alien1_norm.png,0.670163,resources/alien2_norm.png,0.440355987,TRUE,TRUE,3,0.838219304,red,x,0.6348,alien1,TRUE,2,0.646781391,57,1,0.670163,x,0.769,0,99,99,99,1,0.670163,0.440355987,0.670114402,0.452733412,FALSE,,,,,,,,,,,,,,,,,,,,,,,,,,,,,,,,,
GOSH_A14,2023-11-10_13h28.56.287,two_step_task_legacy,2022.2.4,Win32,59.97361161,42,learning,0,resources/alien4_norm.png,0.461700993,resources/alien3_norm.png,0.642860081,TRUE,TRUE,2,0.600299706,purple,x,0.2496,alien4,TRUE,3,0.618515209,57,0,0.461700993,x,1.2174,0,100,100,100,1,0.662758721,0.410336414,0.642860081,0.461700993,TRUE,,,,,,,,,,,,,,,,,,,,,,,,,,,,,,,,,
GOSH_A14,2023-11-10_13h28.56.287,two_step_task_legacy,2022.2.4,Win32,59.97361161,42,learning,1,resources/alien2_norm.png,0.424058962,resources/alien1_norm.png,0.643313989,TRUE,TRUE,3,0.708013618,red,x,0.256,alien1,TRUE,3,0.850148314,57,0,0.643313989,m,1.0389,0,101,101,101,1,0.643313989,0.424058962,0.646010365,0.454211483,TRUE,,,,,,,,,,,,,,,,,,,,,,,,,,,,,,,,,
GOSH_A14,2023-11-10_13h28.56.287,two_step_task_legacy,2022.2.4,Win32,59.97361161,42,learning,1,resources/alien3_norm.png,0.686955458,resources/alien4_norm.png,0.403618261,TRUE,TRUE,2,0.78726049,purple,m,0.7761,alien4,TRUE,3,0.778601151,57,0,0.403618261,m,1.1457,0,102,102,102,1,0.631476746,0.389917938,0.686955458,0.403618261,FALSE,,,,,,,,,,,,,,,,,,,,,,,,,,,,,,,,,
GOSH_A14,2023-11-10_13h28.56.287,two_step_task_legacy,2022.2.4,Win32,59.97361161,42,learning,1,resources/alien4_norm.png,0.408997292,resources/alien3_norm.png,0.689619337,TRUE,TRUE,2,0.983922834,purple,m,0.263,alien3,TRUE,2,0.016290929,58,1,0.689619337,m,1.2788,0,103,103,103,1,0.607448023,0.403863017,0.689619337,0.408997292,TRUE,,,,,,,,,,,,,,,,,,,,,,,,,,,,,,,,,
GOSH_A14,2023-11-10_13h28.56.287,two_step_task_legacy,2022.2.4,Win32,59.97361161,42,learning,0,resources/alien1_norm.png,0.619684973,resources/alien2_norm.png,0.32950117,TRUE,TRUE,3,0.338862856,red,m,0.272,alien1,TRUE,2,0.168569741,59,1,0.619684973,x,0.8511,0,104,104,104,1,0.619684973,0.32950117,0.705183971,0.360989718,FALSE,,,,,,,,,,,,,,,,,,,,,,,,,,,,,,,,,
GOSH_A14,2023-11-10_13h28.56.287,two_step_task_legacy,2022.2.4,Win32,59.97361161,42,learning,1,resources/alien3_norm.png,0.681410354,resources/alien4_norm.png,0.380752686,TRUE,TRUE,2,0.83724924,purple,m,0.2711,alien3,TRUE,2,0.251352041,60,1,0.681410354,x,0.7892,0,105,105,105,1,0.626375391,0.324837411,0.681410354,0.380752686,FALSE,,,,,,,,,,,,,,,,,,,,,,,,,,,,,,,,,
GOSH_A14,2023-11-10_13h28.56.287,two_step_task_legacy,2022.2.4,Win32,59.97361161,42,learning,1,resources/alien1_norm.png,0.615880608,resources/alien2_norm.png,0.30981068,TRUE,TRUE,3,0.890923911,red,x,0.2672,alien1,TRUE,2,0.584507727,61,1,0.615880608,x,0.737,0,106,106,106,1,0.615880608,0.30981068,0.698260812,0.408132147,FALSE,,,,,,,,,,,,,,,,,,,,,,,,,,,,,,,,,
GOSH_A14,2023-11-10_13h28.56.287,two_step_task_legacy,2022.2.4,Win32,59.97361161,42,learning,1,resources/alien1_norm.png,0.62523509,resources/alien2_norm.png,0.292426972,TRUE,TRUE,3,0.856835803,red,x,0.2531,alien1,TRUE,3,0.778232043,61,0,0.62523509,x,0.4286,0,107,107,107,1,0.62523509,0.292426972,0.676320094,0.382292006,FALSE,,,,,,,,,,,,,,,,,,,,,,,,,,,,,,,,,
GOSH_A14,2023-11-10_13h28.56.287,two_step_task_legacy,2022.2.4,Win32,59.97361161,42,learning,0,resources/alien4_norm.png,0.37300537,resources/alien3_norm.png,0.660357999,TRUE,TRUE,2,0.654831378,purple,x,0.2378,alien3,TRUE,2,0.084560568,62,1,0.660357999,m,0.7004,0,108,108,108,1,0.598569321,0.344907943,0.660357999,0.37300537,TRUE,,,,,,,,,,,,,,,,,,,,,,,,,,,,,,,,,
GOSH_A14,2023-11-10_13h28.56.287,two_step_task_legacy,2022.2.4,Win32,59.97361161,42,learning,0,resources/alien4_norm.png,0.37993784,resources/alien3_norm.png,0.613979315,TRUE,TRUE,2,0.280756588,purple,x,0.5191,alien3,TRUE,3,0.704384553,62,0,0.613979315,m,0.6158,0,109,109,109,1,0.570361358,0.331154462,0.613979315,0.37993784,TRUE,,,,,,,,,,,,,,,,,,,,,,,,,,,,,,,,,
GOSH_A14,2023-11-10_13h28.56.287,two_step_task_legacy,2022.2.4,Win32,59.97361161,42,learning,0,resources/alien3_norm.png,0.619699199,resources/alien4_norm.png,0.393058165,TRUE,TRUE,2,0.416534734,purple,x,0.2667,alien3,TRUE,2,0.339703623,63,1,0.619699199,x,0.5101,0,110,110,110,1,0.58740035,0.337657948,0.619699199,0.393058165,FALSE,,,,,,,,,,,,,,,,,,,,,,,,,,,,,,,,,
GOSH_A14,2023-11-10_13h28.56.287,two_step_task_legacy,2022.2.4,Win32,59.97361161,42,learning,0,resources/alien4_norm.png,0.416497809,resources/alien3_norm.png,0.619510259,TRUE,TRUE,2,0.670692038,purple,x,0.2672,alien3,TRUE,2,0.013873577,64,1,0.619510259,m,0.4413,0,111,111,111,1,0.559911302,0.359047055,0.619510259,0.416497809,TRUE,,,,,,,,,,,,,,,,,,,,,,,,,,,,,,,,,
GOSH_A14,2023-11-10_13h28.56.287,two_step_task_legacy,2022.2.4,Win32,59.97361161,42,learning,0,resources/alien3_norm.png,0.613611162,resources/alien4_norm.png,0.435958342,TRUE,TRUE,2,0.168557943,purple,x,0.2385,alien3,TRUE,2,0.487302939,65,1,0.613611162,x,0.4498,0,112,112,112,1,0.545494272,0.411191307,0.613611162,0.435958342,FALSE,,,,,,,,,,,,,,,,,,,,,,,,,,,,,,,,,
GOSH_A14,2023-11-10_13h28.56.287,two_step_task_legacy,2022.2.4,Win32,59.97361161,42,learning,0,resources/alien3_norm.png,0.637218142,resources/alien4_norm.png,0.452738616,TRUE,TRUE,2,0.077460082,purple,x,0.3517,alien3,TRUE,2,0.12697915,66,1,0.637218142,x,0.3847,0,113,113,113,1,0.579246776,0.440247332,0.637218142,0.452738616,FALSE,,,,,,,,,,,,,,,,,,,,,,,,,,,,,,,,,
GOSH_A14,2023-11-10_13h28.56.287,two_step_task_legacy,2022.2.4,Win32,59.97361161,42,learning,1,resources/alien2_norm.png,0.425079018,resources/alien1_norm.png,0.583340322,TRUE,TRUE,3,0.922148689,red,x,0.2237,alien1,TRUE,2,0.328822565,67,1,0.583340322,m,0.6616,0,114,114,114,1,0.583340322,0.425079018,0.596355675,0.468325959,TRUE,,,,,,,,,,,,,,,,,,,,,,,,,,,,,,,,,
GOSH_A14,2023-11-10_13h28.56.287,two_step_task_legacy,2022.2.4,Win32,59.97361161,42,learning,0,resources/alien3_norm.png,0.576655415,resources/alien4_norm.png,0.460870818,TRUE,TRUE,2,0.132934046,purple,x,0.295,alien3,TRUE,2,0.464801431,68,1,0.576655415,x,0.3942,0,115,115,115,1,0.604945689,0.434492892,0.576655415,0.460870818,FALSE,,,,,,,,,,,,,,,,,,,,,,,,,,,,,,,,,
GOSH_A14,2023-11-10_13h28.56.287,two_step_task_legacy,2022.2.4,Win32,59.97361161,42,learning,0,resources/alien4_norm.png,0.448255298,resources/alien3_norm.png,0.614935872,TRUE,TRUE,2,0.6565423,purple,x,0.298,alien3,TRUE,2,0.504581377,69,1,0.614935872,m,0.6679,0,116,116,116,1,0.586469122,0.411991774,0.614935872,0.448255298,TRUE,,,,,,,,,,,,,,,,,,,,,,,,,,,,,,,,,
GOSH_A14,2023-11-10_13h28.56.287,two_step_task_legacy,2022.2.4,Win32,59.97361161,42,learning,0,resources/alien3_norm.png,0.642948289,resources/alien4_norm.png,0.438237026,TRUE,TRUE,2,0.337256968,purple,x,0.2664,alien3,TRUE,2,0.094125844,70,1,0.642948289,x,0.5179,0,117,117,117,1,0.597680175,0.407781491,0.642948289,0.438237026,FALSE,,,,,,,,,,,,,,,,,,,,,,,,,,,,,,,,,
GOSH_A14,2023-11-10_13h28.56.287,two_step_task_legacy,2022.2.4,Win32,59.97361161,42,learning,1,resources/alien1_norm.png,0.607140369,resources/alien2_norm.png,0.404204885,TRUE,TRUE,3,0.88632985,red,x,0.3317,alien1,TRUE,3,0.720914752,70,0,0.607140369,x,0.7004,0,118,118,118,1,0.607140369,0.404204885,0.602822322,0.404509124,FALSE,,,,,,,,,,,,,,,,,,,,,,,,,,,,,,,,,
GOSH_A14,2023-11-10_13h28.56.287,two_step_task_legacy,2022.2.4,Win32,59.97361161,42,learning,0,resources/alien4_norm.png,0.401051938,resources/alien3_norm.png,0.580273823,TRUE,TRUE,2,0.104545981,purple,x,0.2372,alien3,TRUE,2,0.475662691,71,1,0.580273823,m,0.4389,0,119,119,119,1,0.645920283,0.380959241,0.580273823,0.401051938,TRUE,,,,,,,,,,,,,,,,,,,,,,,,,,,,,,,,,
GOSH_A14,2023-11-10_13h28.56.287,two_step_task_legacy,2022.2.4,Win32,59.97361161,42,learning,0,resources/alien2_norm.png,0.392859086,resources/alien1_norm.png,0.658547117,TRUE,TRUE,3,0.289684434,red,m,0.2893,alien2,TRUE,2,0.025714422,72,1,0.392859086,x,0.7582,0,120,120,120,1,0.658547117,0.392859086,0.631562859,0.412259552,TRUE,,,,,,,,,,,,,,,,,,,,,,,,,,,,,,,,,
GOSH_A14,2023-11-10_13h28.56.287,two_step_task_legacy,2022.2.4,Win32,59.97361161,42,learning,0,resources/alien4_norm.png,0.395928975,resources/alien3_norm.png,0.604082121,TRUE,TRUE,2,0.298300982,purple,x,0.288,alien3,TRUE,2,0.001107012,73,1,0.604082121,m,0.5365,0,121,121,121,1,0.650404676,0.360451327,0.604082121,0.395928975,TRUE,,,,,,,,,,,,,,,,,,,,,,,,,,,,,,,,,
GOSH_A14,2023-11-10_13h28.56.287,two_step_task_legacy,2022.2.4,Win32,59.97361161,42,learning,1,resources/alien2_norm.png,0.355956285,resources/alien1_norm.png,0.673272533,TRUE,TRUE,3,0.978502597,red,x,0.2934,alien2,TRUE,3,0.419499942,73,0,0.355956285,x,0.9067,0,122,122,122,1,0.673272533,0.355956285,0.628665817,0.386308261,TRUE,,,,,,,,,,,,,,,,,,,,,,,,,,,,,,,,,
GOSH_A14,2023-11-10_13h28.56.287,two_step_task_legacy,2022.2.4,Win32,59.97361161,42,learning,0,resources/alien3_norm.png,0.610103866,resources/alien4_norm.png,0.357718182,TRUE,TRUE,2,0.312198624,purple,x,0.2609,alien3,TRUE,3,0.904095145,73,0,0.610103866,x,0.6776,0,123,123,123,1,0.670632873,0.327747525,0.610103866,0.357718182,FALSE,,,,,,,,,,,,,,,,,,,,,,,,,,,,,,,,,
GOSH_A14,2023-11-10_13h28.56.287,two_step_task_legacy,2022.2.4,Win32,59.97361161,42,learning,0,resources/alien4_norm.png,0.37097985,resources/alien3_norm.png,0.613229285,TRUE,TRUE,2,0.442453367,purple,x,0.1391,alien3,TRUE,3,0.810944361,73,0,0.613229285,m,0.9214,0,124,124,124,1,0.657862677,0.344154365,0.613229285,0.37097985,TRUE,,,,,,,,,,,,,,,,,,,,,,,,,,,,,,,,,
GOSH_A14,2023-11-10_13h28.56.287,two_step_task_legacy,2022.2.4,Win32,59.97361161,42,learning,1,resources/alien2_norm.png,0.309658221,resources/alien1_norm.png,0.621544128,TRUE,TRUE,3,0.913844507,red,x,0.2374,alien1,TRUE,2,0.160728343,74,1,0.621544128,m,0.7768,0,125,125,125,1,0.621544128,0.309658221,0.610850875,0.381658026,TRUE,,,,,,,,,,,,,,,,,,,,,,,,,,,,,,,,,
GOSH_A14,2023-11-10_13h28.56.287,two_step_task_legacy,2022.2.4,Win32,59.97361161,42,learning,0,resources/alien2_norm.png,0.331079162,resources/alien1_norm.png,0.638765158,TRUE,TRUE,3,0.678209236,red,m,0.2548,alien1,TRUE,3,0.986748513,74,0,0.638765158,m,0.3664,0,126,126,126,1,0.638765158,0.331079162,0.609641124,0.398279361,TRUE,,,,,,,,,,,,,,,,,,,,,,,,,,,,,,,,,
GOSH_A14,2023-11-10_13h28.56.287,two_step_task_legacy,2022.2.4,Win32,59.97361161,42,learning,0,resources/alien4_norm.png,0.373544908,resources/alien3_norm.png,0.58487235,TRUE,TRUE,2,0.016105095,purple,x,0.7217,alien4,TRUE,3,0.529034436,74,0,0.373544908,x,0.7003,0,127,127,127,1,0.626231969,0.317571318,0.58487235,0.373544908,TRUE,,,,,,,,,,,,,,,,,,,,,,,,,,,,,,,,,
GOSH_A14,2023-11-10_13h28.56.287,two_step_task_legacy,2022.2.4,Win32,59.97361161,42,learning,0,resources/alien1_norm.png,0.678718937,resources/alien2_norm.png,0.327327384,TRUE,TRUE,3,0.374928935,red,m,0.3397,alien1,TRUE,3,0.694929913,74,0,0.678718937,x,0.6955,0,128,128,128,1,0.678718937,0.327327384,0.568265306,0.391101509,FALSE,,,,,,,,,,,,,,,,,,,,,,,,,,,,,,,,,
GOSH_A14,2023-11-10_13h28.56.287,two_step_task_legacy,2022.2.4,Win32,59.97361161,42,learning,0,resources/alien1_norm.png,0.684288487,resources/alien2_norm.png,0.320525721,TRUE,TRUE,3,0.660843276,red,m,0.256,alien2,TRUE,2,0.23361458,75,1,0.320525721,m,0.37,0,129,129,129,1,0.684288487,0.320525721,0.597478578,0.421707366,FALSE,,,,,,,,,,,,,,,,,,,,,,,,,,,,,,,,,
GOSH_A14,2023-11-10_13h28.56.287,two_step_task_legacy,2022.2.4,Win32,59.97361161,42,learning,1,resources/alien4_norm.png,0.43392991,resources/alien3_norm.png,0.601527307,TRUE,TRUE,2,0.711227792,purple,m,0.3133,alien3,TRUE,2,0.032945099,76,1,0.601527307,m,1.9149,0,130,130,130,1,0.708061265,0.343294024,0.601527307,0.43392991,TRUE,,,,,,,,,,,,,,,,,,,,,,,,,,,,,,,,,
GOSH_A14,2023-11-10_13h28.56.287,two_step_task_legacy,2022.2.4,Win32,59.97361161,42,learning,0,resources/alien2_norm.png,0.382507356,resources/alien1_norm.png,0.686290312,TRUE,TRUE,3,0.297652119,red,m,0.2997,alien2,TRUE,3,0.620982153,76,0,0.382507356,x,0.517,0,131,131,131,1,0.686290312,0.382507356,0.64763363,0.426719665,TRUE,,,,,,,,,,,,,,,,,,,,,,,,,,,,,,,,,
GOSH_A14,2023-11-10_13h28.56.287,two_step_task_legacy,2022.2.4,Win32,59.97361161,42,learning,0,resources/alien1_norm.png,0.699484736,resources/alien2_norm.png,0.351467325,TRUE,TRUE,3,0.691817211,red,m,0.3167,alien2,TRUE,2,0.239457258,77,1,0.351467325,m,0.7026,0,132,132,132,1,0.699484736,0.351467325,0.651574397,0.46105971,FALSE,,,,,,,,,,,,,,,,,,,,,,,,,,,,,,,,,
GOSH_A14,2023-11-10_13h28.56.287,two_step_task_legacy,2022.2.4,Win32,59.97361161,42,learning,0,resources/alien1_norm.png,0.641468852,resources/alien2_norm.png,0.341104878,TRUE,TRUE,3,0.672312275,red,m,0.2841,alien2,TRUE,3,0.65043309,77,0,0.341104878,m,0.4028,0,133,133,133,1,0.641468852,0.341104878,0.646278608,0.445730538,FALSE,,,,,,,,,,,,,,,,,,,,,,,,,,,,,,,,,
GOSH_A14,2023-11-10_13h28.56.287,two_step_task_legacy,2022.2.4,Win32,59.97361161,42,learning,0,resources/alien3_norm.png,0.567315406,resources/alien4_norm.png,0.415065107,TRUE,TRUE,2,0.106537231,purple,x,0.3619,alien3,TRUE,2,0.42025588,78,1,0.567315406,x,0.4721,0,134,134,134,1,0.644630983,0.334501306,0.567315406,0.415065107,FALSE,,,,,,,,,,,,,,,,,,,,,,,,,,,,,,,,,
GOSH_A14,2023-11-10_13h28.56.287,two_step_task_legacy,2022.2.4,Win32,59.97361161,42,learning,0,resources/alien4_norm.png,0.435505403,resources/alien3_norm.png,0.546803619,TRUE,TRUE,2,0.000950747,purple,x,0.2834,alien3,TRUE,3,0.821767298,78,0,0.546803619,m,0.6033,0,135,135,135,1,0.62177449,0.306808941,0.546803619,0.435505403,TRUE,,,,,,,,,,,,,,,,,,,,,,,,,,,,,,,,,
GOSH_A14,2023-11-10_13h28.56.287,two_step_task_legacy,2022.2.4,Win32,59.97361161,42,learning,0,resources/alien4_norm.png,0.435824404,resources/alien3_norm.png,0.530728159,TRUE,TRUE,2,0.3388235,purple,x,0.2781,alien3,TRUE,2,0.366695982,79,1,0.530728159,m,0.443,0,136,136,136,1,0.583999286,0.335239917,0.530728159,0.435824404,TRUE,,,,,,,,,,,,,,,,,,,,,,,,,,,,,,,,,
GOSH_A14,2023-11-10_13h28.56.287,two_step_task_legacy,2022.2.4,Win32,59.97361161,42,learning,1,resources/alien1_norm.png,0.622896698,resources/alien2_norm.png,0.307734706,TRUE,TRUE,3,0.747527922,red,x,0.313,alien2,TRUE,3,0.61284989,79,0,0.307734706,m,0.6701,0,137,137,137,1,0.622896698,0.307734706,0.526351702,0.410734121,FALSE,,,,,,,,,,,,,,,,,,,,,,,,,,,,,,,,,
GOSH_A14,2023-11-10_13h28.56.287,two_step_task_legacy,2022.2.4,Win32,59.97361161,42,learning,0,resources/alien4_norm.png,0.424768301,resources/alien3_norm.png,0.540851944,TRUE,TRUE,2,0.691930243,purple,x,0.3169,alien3,TRUE,2,0.485283532,80,1,0.540851944,m,0.3665,0,138,138,138,1,0.652449873,0.293138513,0.540851944,0.424768301,TRUE,,,,,,,,,,,,,,,,,,,,,,,,,,,,,,,,,
GOSH_A14,2023-11-10_13h28.56.287,two_step_task_legacy,2022.2.4,Win32,59.97361161,42,learning,0,resources/alien1_norm.png,0.641621388,resources/alien2_norm.png,0.272932121,TRUE,TRUE,3,0.194553374,red,m,0.3678,alien2,TRUE,3,0.332710874,80,0,0.272932121,m,0.4824,0,139,139,139,1,0.641621388,0.272932121,0.526378494,0.405697073,FALSE,,,,,,,,,,,,,,,,,,,,,,,,,,,,,,,,,
GOSH_A14,2023-11-10_13h28.56.287,two_step_task_legacy,2022.2.4,Win32,59.97361161,42,learning,0,resources/alien1_norm.png,0.62488726,resources/alien2_norm.png,0.255851205,TRUE,TRUE,3,0.170824088,red,m,0.5167,alien1,TRUE,2,0.075148872,81,1,0.62488726,x,0.4407,0,140,140,140,1,0.62488726,0.255851205,0.5484319,0.443309791,FALSE,,,,,,,,,,,,,,,,,,,,,,,,,,,,,,,,,
GOSH_A14,2023-11-10_13h28.56.287,two_step_task_legacy,2022.2.4,Win32,59.97361161,42,learning,0,resources/alien1_norm.png,0.662793601,resources/alien2_norm.png,0.257559917,TRUE,TRUE,3,0.181294452,red,m,0.3663,alien1,TRUE,2,0.378169819,82,1,0.662793601,x,0.39,0,141,141,141,1,0.662793601,0.257559917,0.528872078,0.47882794,FALSE,,,,,,,,,,,,,,,,,,,,,,,,,,,,,,,,,
GOSH_A14,2023-11-10_13h28.56.287,two_step_task_legacy,2022.2.4,Win32,59.97361161,42,learning,1,resources/alien4_norm.png,0.463754704,resources/alien3_norm.png,0.534881349,TRUE,TRUE,2,0.741578454,purple,m,0.277,alien3,TRUE,2,0.248079525,83,1,0.534881349,m,0.8433,0,142,142,142,1,0.673804421,0.263651818,0.534881349,0.463754704,TRUE,,,,,,,,,,,,,,,,,,,,,,,,,,,,,,,,,
GOSH_A14,2023-11-10_13h28.56.287,two_step_task_legacy,2022.2.4,Win32,59.97361161,42,learning,0,resources/alien1_norm.png,0.698580012,resources/alien2_norm.png,0.269979962,TRUE,TRUE,3,0.112232759,red,m,0.3677,alien1,TRUE,2,0.431130445,84,1,0.698580012,x,0.455,0,143,143,143,1,0.698580012,0.269979962,0.509649718,0.462479402,FALSE,,,,,,,,,,,,,,,,,,,,,,,,,,,,,,,,,
GOSH_A14,2023-11-10_13h28.56.287,two_step_task_legacy,2022.2.4,Win32,59.97361161,42,learning,0,resources/alien1_norm.png,0.736530576,resources/alien2_norm.png,0.296852887,TRUE,TRUE,3,0.201356203,red,m,0.2725,alien1,TRUE,2,0.019108337,85,1,0.736530576,x,0.404,0,144,144,144,1,0.736530576,0.296852887,0.586453861,0.449444223,FALSE,,,,,,,,,,,,,,,,,,,,,,,,,,,,,,,,,
GOSH_A14,2023-11-10_13h28.56.287,two_step_task_legacy,2022.2.4,Win32,59.97361161,42,learning,1,resources/alien4_norm.png,0.429541148,resources/alien3_norm.png,0.591891528,TRUE,TRUE,2,0.795844673,purple,m,0.2738,alien3,TRUE,2,0.514132535,86,1,0.591891528,m,0.6768,0,145,145,145,1,0.729630293,0.285357955,0.591891528,0.429541148,TRUE,,,,,,,,,,,,,,,,,,,,,,,,,,,,,,,,,
GOSH_A14,2023-11-10_13h28.56.287,two_step_task_legacy,2022.2.4,Win32,59.97361161,42,learning,1,resources/alien4_norm.png,0.450195866,resources/alien3_norm.png,0.600996283,TRUE,TRUE,2,0.811312143,purple,m,0.2499,alien3,TRUE,2,0.528796529,87,1,0.600996283,m,0.6901,0,146,146,146,1,0.733408604,0.263038351,0.600996283,0.450195866,TRUE,,,,,,,,,,,,,,,,,,,,,,,,,,,,,,,,,
GOSH_A14,2023-11-10_13h28.56.287,two_step_task_legacy,2022.2.4,Win32,59.97361161,42,learning,0,resources/alien1_norm.png,0.711810619,resources/alien2_norm.png,0.298461205,TRUE,TRUE,3,0.602373937,red,m,0.29,alien1,TRUE,2,0.164543416,88,1,0.711810619,x,0.4666,0,147,147,147,1,0.711810619,0.298461205,0.595997484,0.445300194,FALSE,,,,,,,,,,,,,,,,,,,,,,,,,,,,,,,,,
GOSH_A14,2023-11-10_13h28.56.287,two_step_task_legacy,2022.2.4,Win32,59.97361161,42,learning,0,resources/alien2_norm.png,0.306984466,resources/alien1_norm.png,0.687823782,TRUE,TRUE,3,0.353851189,red,m,0.2706,alien1,TRUE,2,0.235162413,89,1,0.687823782,m,0.5286,0,148,148,148,1,0.687823782,0.306984466,0.600330442,0.429892682,TRUE,,,,,,,,,,,,,,,,,,,,,,,,,,,,,,,,,
GOSH_A14,2023-11-10_13h28.56.287,two_step_task_legacy,2022.2.4,Win32,59.97361161,42,learning,0,resources/alien2_norm.png,0.319584149,resources/alien1_norm.png,0.68869481,TRUE,TRUE,3,0.476813568,red,m,0.4399,alien1,TRUE,2,0.569306593,90,1,0.68869481,m,0.445,0,149,149,149,1,0.68869481,0.319584149,0.630930916,0.426929955,TRUE,,,,,,,,,,,,,,,,,,,,,,,,,,,,,,,,,
GOSH_A14,2023-11-10_13h28.56.287,two_step_task_legacy,2022.2.4,Win32,59.97361161,42,learning,0,resources/alien2_norm.png,0.3,resources/alien1_norm.png,0.7,TRUE,TRUE,3,0.318065134,red,m,0.3481,alien1,TRUE,2,0.612319989,91,1,0.7,m,0.3902,0,150,150,150,1,0.7,0.3,0.6,0.4,TRUE,,,,,,,,,,,,,,,,,,,,,,,,,,,,,,,,,
GOSH_A14,2023-11-10_13h28.56.287,two_step_task_legacy,2022.2.4,Win32,59.97361161,42,learning,0,resources/alien1_norm.png,0.7,resources/alien2_norm.png,0.3,TRUE,TRUE,3,0.315843536,red,m,0.6177,alien1,TRUE,2,0.526561176,92,1,0.7,x,0.5007,0,151,151,151,1,0.7,0.3,0.6,0.4,FALSE,,,,,,,,,,,,,,,,,,,,,,,,,,,,,,,,,
GOSH_A14,2023-11-10_13h28.56.287,two_step_task_legacy,2022.2.4,Win32,59.97361161,42,learning,1,resources/alien3_norm.png,0.6,resources/alien4_norm.png,0.4,TRUE,TRUE,2,0.85920263,purple,m,0.5949,alien3,TRUE,2,0.338154441,93,1,0.6,x,0.7701,0,152,152,152,1,0.7,0.3,0.6,0.4,FALSE,,,,,,,,,,,,,,,,,,,,,,,,,,,,,,,,,
GOSH_A14,2023-11-10_13h28.56.287,two_step_task_legacy,2022.2.4,Win32,59.97361161,42,learning,0,resources/alien2_norm.png,0.3,resources/alien1_norm.png,0.7,TRUE,TRUE,3,0.32375215,red,m,0.2377,alien1,TRUE,2,0.438417131,94,1,0.7,m,0.44,0,153,153,153,1,0.7,0.3,0.6,0.4,TRUE,,,,,,,,,,,,,,,,,,,,,,,,,,,,,,,,,
GOSH_A14,2023-11-10_13h28.56.287,two_step_task_legacy,2022.2.4,Win32,59.97361161,42,learning,0,resources/alien1_norm.png,0.7,resources/alien2_norm.png,0.3,TRUE,TRUE,3,0.028747576,red,m,0.295,alien1,TRUE,2,0.189372811,95,1,0.7,x,0.501,0,154,154,154,1,0.7,0.3,0.6,0.4,FALSE,,,,,,,,,,,,,,,,,,,,,,,,,,,,,,,,,
GOSH_A14,2023-11-10_13h28.56.287,two_step_task_legacy,2022.2.4,Win32,59.97361161,42,learning,1,resources/alien4_norm.png,0.4,resources/alien3_norm.png,0.6,TRUE,TRUE,2,0.892663697,purple,m,0.404,alien3,TRUE,2,0.590961726,96,1,0.6,m,0.7198,0,155,155,155,1,0.7,0.3,0.6,0.4,TRUE,,,,,,,,,,,,,,,,,,,,,,,,,,,,,,,,,
GOSH_A14,2023-11-10_13h28.56.287,two_step_task_legacy,2022.2.4,Win32,59.97361161,42,learning,0,resources/alien1_norm.png,0.7,resources/alien2_norm.png,0.3,TRUE,TRUE,3,0.694408626,red,m,0.5174,alien1,TRUE,2,0.333091432,97,1,0.7,x,0.6828,0,156,156,156,1,0.7,0.3,0.6,0.4,FALSE,,,,,,,,,,,,,,,,,,,,,,,,,,,,,,,,,
GOSH_A14,2023-11-10_13h28.56.287,two_step_task_legacy,2022.2.4,Win32,59.97361161,42,learning,1,resources/alien1_norm.png,0.7,resources/alien2_norm.png,0.3,TRUE,TRUE,3,0.889387253,red,x,0.6341,alien1,TRUE,2,0.030497633,98,1,0.7,x,0.5921,0,157,157,157,1,0.7,0.3,0.6,0.4,FALSE,,,,,,,,,,,,,,,,,,,,,,,,,,,,,,,,,
GOSH_A14,2023-11-10_13h28.56.287,two_step_task_legacy,2022.2.4,Win32,59.97361161,42,learning,0,resources/alien3_norm.png,0.6,resources/alien4_norm.png,0.4,TRUE,TRUE,2,0.114196536,purple,x,0.2863,alien3,TRUE,3,0.772379622,98,0,0.6,x,0.6437,0,158,158,158,1,0.7,0.3,0.6,0.4,FALSE,,,,,,,,,,,,,,,,,,,,,,,,,,,,,,,,,
GOSH_A14,2023-11-10_13h28.56.287,two_step_task_legacy,2022.2.4,Win32,59.97361161,42,learning,1,resources/alien3_norm.png,0.6,resources/alien4_norm.png,0.4,TRUE,TRUE,2,0.722538993,purple,m,0.3115,alien3,TRUE,3,0.971594992,98,0,0.6,x,0.6899,0,159,159,159,1,0.7,0.3,0.6,0.4,FALSE,,,,,,,,,,,,,,,,,,,,,,,,,,,,,,,,,
GOSH_A14,2023-11-10_13h28.56.287,two_step_task_legacy,2022.2.4,Win32,59.97361161,42,learning,0,resources/alien1_norm.png,0.7,resources/alien2_norm.png,0.3,TRUE,TRUE,3,0.111425562,red,m,0.2341,alien1,TRUE,2,0.36147338,99,1,0.7,x,0.6265,0,160,160,160,1,0.7,0.3,0.6,0.4,FALSE,,,,,,,,,,,,,,,,,,,,,,,,,,,,,,,,,
GOSH_A14,2023-11-10_13h28.56.287,two_step_task_legacy,2022.2.4,Win32,59.97361161,42,learning,0,resources/alien2_norm.png,0.3,resources/alien1_norm.png,0.7,TRUE,TRUE,3,0.030769966,red,m,0.25,alien1,TRUE,3,0.904646842,99,0,0.7,m,0.4874,0,161,161,161,1,0.7,0.3,0.6,0.4,TRUE,,,,,,,,,,,,,,,,,,,,,,,,,,,,,,,,,
GOSH_A14,2023-11-10_13h28.56.287,two_step_task_legacy,2022.2.4,Win32,59.97361161,42,learning,0,resources/alien2_norm.png,0.3,resources/alien1_norm.png,0.7,TRUE,TRUE,3,0.185007549,red,m,0.29,alien1,TRUE,2,0.68991309,100,1,0.7,m,0.5193,0,162,162,162,1,0.7,0.3,0.6,0.4,TRUE,,,,,,,,,,,,,,,,,,,,,,,,,,,,,,,,,
GOSH_A14,2023-11-10_13h28.56.287,two_step_task_legacy,2022.2.4,Win32,59.97361161,42,learning,0,resources/alien1_norm.png,0.7,resources/alien2_norm.png,0.3,TRUE,TRUE,3,0.591104154,red,m,0.2673,alien1,TRUE,2,0.199789534,101,1,0.7,x,0.494,0,163,163,163,1,0.7,0.3,0.6,0.4,FALSE,,,,,,,,,,,,,,,,,,,,,,,,,,,,,,,,,
GOSH_A14,2023-11-10_13h28.56.287,two_step_task_legacy,2022.2.4,Win32,59.97361161,42,learning,0,resources/alien2_norm.png,0.3,resources/alien1_norm.png,0.7,TRUE,TRUE,3,0.003698187,red,m,0.242,alien1,TRUE,3,0.914901596,101,0,0.7,m,0.3902,0,164,164,164,1,0.7,0.3,0.6,0.4,TRUE,,,,,,,,,,,,,,,,,,,,,,,,,,,,,,,,,
GOSH_A14,2023-11-10_13h28.56.287,two_step_task_legacy,2022.2.4,Win32,59.97361161,42,learning,0,resources/alien1_norm.png,0.7,resources/alien2_norm.png,0.3,TRUE,TRUE,3,0.602078371,red,m,0.27,alien1,TRUE,3,0.986948436,101,0,0.7,x,0.5364,0,165,165,165,1,0.7,0.3,0.6,0.4,FALSE,,,,,,,,,,,,,,,,,,,,,,,,,,,,,,,,,
GOSH_A14,2023-11-10_13h28.56.287,two_step_task_legacy,2022.2.4,Win32,59.97361161,42,learning,0,resources/alien1_norm.png,0.7,resources/alien2_norm.png,0.3,TRUE,TRUE,3,0.632939907,red,m,0.2843,alien1,TRUE,2,0.588517163,102,1,0.7,x,0.4171,0,166,166,166,1,0.7,0.3,0.6,0.4,FALSE,,,,,,,,,,,,,,,,,,,,,,,,,,,,,,,,,
GOSH_A14,2023-11-10_13h28.56.287,two_step_task_legacy,2022.2.4,Win32,59.97361161,42,learning,1,resources/alien4_norm.png,0.4,resources/alien3_norm.png,0.6,TRUE,TRUE,2,0.755087609,purple,m,0.3069,alien4,TRUE,3,0.991336186,102,0,0.4,x,1.1746,0,167,167,167,1,0.7,0.3,0.6,0.4,TRUE,,,,,,,,,,,,,,,,,,,,,,,,,,,,,,,,,
GOSH_A14,2023-11-10_13h28.56.287,two_step_task_legacy,2022.2.4,Win32,59.97361161,42,learning,1,resources/alien3_norm.png,0.6,resources/alien4_norm.png,0.4,TRUE,TRUE,2,0.967322087,purple,m,0.2757,alien3,TRUE,3,0.815940243,102,0,0.6,x,1.0514,0,168,168,168,1,0.7,0.3,0.6,0.4,FALSE,,,,,,,,,,,,,,,,,,,,,,,,,,,,,,,,,
GOSH_A14,2023-11-10_13h28.56.287,two_step_task_legacy,2022.2.4,Win32,59.97361161,42,learning,1,resources/alien4_norm.png,0.4,resources/alien3_norm.png,0.6,TRUE,TRUE,2,0.931091998,purple,m,0.2564,alien3,TRUE,2,0.292626912,103,1,0.6,m,0.918,0,169,169,169,1,0.7,0.3,0.6,0.4,TRUE,,,,,,,,,,,,,,,,,,,,,,,,,,,,,,,,,
GOSH_A14,2023-11-10_13h28.56.287,two_step_task_legacy,2022.2.4,Win32,59.97361161,42,learning,0,resources/alien2_norm.png,0.3,resources/alien1_norm.png,0.7,TRUE,TRUE,3,0.178810184,red,m,0.2786,alien1,TRUE,2,0.333715105,104,1,0.7,m,0.5552,0,170,170,170,1,0.7,0.3,0.6,0.4,TRUE,,,,,,,,,,,,,,,,,,,,,,,,,,,,,,,,,
GOSH_A14,2023-11-10_13h28.56.287,two_step_task_legacy,2022.2.4,Win32,59.97361161,42,learning,1,resources/alien4_norm.png,0.4,resources/alien3_norm.png,0.6,TRUE,TRUE,2,0.741364571,purple,m,0.2748,alien3,TRUE,2,0.011796942,105,1,0.6,m,0.9995,0,171,171,171,1,0.7,0.3,0.6,0.4,TRUE,,,,,,,,,,,,,,,,,,,,,,,,,,,,,,,,,
GOSH_A14,2023-11-10_13h28.56.287,two_step_task_legacy,2022.2.4,Win32,59.97361161,42,learning,1,resources/alien3_norm.png,0.6,resources/alien4_norm.png,0.4,TRUE,TRUE,2,0.999792725,purple,m,0.2662,alien3,TRUE,2,0.039712544,106,1,0.6,x,0.6814,0,172,172,172,1,0.7,0.3,0.6,0.4,FALSE,,,,,,,,,,,,,,,,,,,,,,,,,,,,,,,,,
GOSH_A14,2023-11-10_13h28.56.287,two_step_task_legacy,2022.2.4,Win32,59.97361161,42,learning,0,resources/alien1_norm.png,0.7,resources/alien2_norm.png,0.3,TRUE,TRUE,3,0.157548173,red,m,0.3605,alien1,TRUE,2,0.641020361,107,1,0.7,x,0.5577,0,173,173,173,1,0.7,0.3,0.6,0.4,FALSE,,,,,,,,,,,,,,,,,,,,,,,,,,,,,,,,,
GOSH_A14,2023-11-10_13h28.56.287,two_step_task_legacy,2022.2.4,Win32,59.97361161,42,learning,0,resources/alien2_norm.png,0.3,resources/alien1_norm.png,0.7,TRUE,TRUE,3,0.484028335,red,m,0.5544,alien1,TRUE,2,0.109537216,108,1,0.7,m,0.508,0,174,174,174,1,0.7,0.3,0.6,0.4,TRUE,,,,,,,,,,,,,,,,,,,,,,,,,,,,,,,,,
GOSH_A14,2023-11-10_13h28.56.287,two_step_task_legacy,2022.2.4,Win32,59.97361161,42,learning,0,resources/alien2_norm.png,0.3,resources/alien1_norm.png,0.7,TRUE,TRUE,3,0.565608855,red,m,0.4675,alien1,TRUE,2,0.60430802,109,1,0.7,m,0.5063,0,175,175,175,1,0.7,0.3,0.6,0.4,TRUE,,,,,,,,,,,,,,,,,,,,,,,,,,,,,,,,,
GOSH_A14,2023-11-10_13h28.56.287,two_step_task_legacy,2022.2.4,Win32,59.97361161,42,learning,1,resources/alien4_norm.png,0.4,resources/alien3_norm.png,0.6,TRUE,TRUE,2,0.72665795,purple,m,0.5272,alien3,TRUE,2,0.495984717,110,1,0.6,m,0.6722,0,176,176,176,1,0.7,0.3,0.6,0.4,TRUE,,,,,,,,,,,,,,,,,,,,,,,,,,,,,,,,,
GOSH_A14,2023-11-10_13h28.56.287,two_step_task_legacy,2022.2.4,Win32,59.97361161,42,learning,0,resources/alien2_norm.png,0.3,resources/alien1_norm.png,0.7,TRUE,TRUE,3,0.234088897,red,m,0.4463,alien1,TRUE,2,0.430529734,111,1,0.7,m,0.5993,0,177,177,177,1,0.7,0.3,0.6,0.4,TRUE,,,,,,,,,,,,,,,,,,,,,,,,,,,,,,,,,
GOSH_A14,2023-11-10_13h28.56.287,two_step_task_legacy,2022.2.4,Win32,59.97361161,42,learning,1,resources/alien4_norm.png,0.4,resources/alien3_norm.png,0.6,TRUE,TRUE,2,0.911882727,purple,m,0.3837,alien3,TRUE,3,0.613211287,111,0,0.6,m,0.5138,0,178,178,178,1,0.7,0.3,0.6,0.4,TRUE,,,,,,,,,,,,,,,,,,,,,,,,,,,,,,,,,
GOSH_A14,2023-11-10_13h28.56.287,two_step_task_legacy,2022.2.4,Win32,59.97361161,42,learning,1,resources/alien4_norm.png,0.4,resources/alien3_norm.png,0.6,TRUE,TRUE,2,0.838829951,purple,m,0.2646,alien3,TRUE,2,0.262610201,112,1,0.6,m,0.5332,0,179,179,179,1,0.7,0.3,0.6,0.4,TRUE,,,,,,,,,,,,,,,,,,,,,,,,,,,,,,,,,
GOSH_A14,2023-11-10_13h28.56.287,two_step_task_legacy,2022.2.4,Win32,59.97361161,42,learning,0,resources/alien1_norm.png,0.7,resources/alien2_norm.png,0.3,TRUE,TRUE,3,0.161175935,red,m,0.3667,alien1,TRUE,2,0.601670377,113,1,0.7,x,0.5992,0,180,180,180,1,0.7,0.3,0.6,0.4,FALSE,,,,,,,,,,,,,,,,,,,,,,,,,,,,,,,,,
GOSH_A14,2023-11-10_13h28.56.287,two_step_task_legacy,2022.2.4,Win32,59.97361161,42,learning,0,resources/alien1_norm.png,0.7,resources/alien2_norm.png,0.3,TRUE,TRUE,3,0.14514346,red,m,0.2645,alien1,TRUE,2,0.478246304,114,1,0.7,x,0.401,0,181,181,181,1,0.7,0.3,0.6,0.4,FALSE,,,,,,,,,,,,,,,,,,,,,,,,,,,,,,,,,
GOSH_A14,2023-11-10_13h28.56.287,two_step_task_legacy,2022.2.4,Win32,59.97361161,42,learning,0,resources/alien2_norm.png,0.3,resources/alien1_norm.png,0.7,TRUE,TRUE,3,0.250093951,red,m,0.3046,alien1,TRUE,2,0.037746692,115,1,0.7,m,0.512,0,182,182,182,1,0.7,0.3,0.6,0.4,TRUE,,,,,,,,,,,,,,,,,,,,,,,,,,,,,,,,,
GOSH_A14,2023-11-10_13h28.56.287,two_step_task_legacy,2022.2.4,Win32,59.97361161,42,learning,0,resources/alien2_norm.png,0.3,resources/alien1_norm.png,0.7,TRUE,TRUE,3,0.192596134,red,m,0.2661,alien1,TRUE,2,0.648971393,116,1,0.7,m,0.6178,0,183,183,183,1,0.7,0.3,0.6,0.4,TRUE,,,,,,,,,,,,,,,,,,,,,,,,,,,,,,,,,
GOSH_A14,2023-11-10_13h28.56.287,two_step_task_legacy,2022.2.4,Win32,59.97361161,42,learning,1,resources/alien3_norm.png,0.6,resources/alien4_norm.png,0.4,TRUE,TRUE,2,0.957232163,purple,m,0.3956,alien3,TRUE,2,0.037822169,117,1,0.6,x,2.3827,0,184,184,184,1,0.7,0.3,0.6,0.4,FALSE,,,,,,,,,,,,,,,,,,,,,,,,,,,,,,,,,
GOSH_A14,2023-11-10_13h28.56.287,two_step_task_legacy,2022.2.4,Win32,59.97361161,42,learning,1,resources/alien3_norm.png,0.6,resources/alien4_norm.png,0.4,TRUE,TRUE,2,0.958672647,purple,m,0.6838,alien3,TRUE,3,0.900122536,117,0,0.6,x,0.5199,0,185,185,185,1,0.7,0.3,0.6,0.4,FALSE,,,,,,,,,,,,,,,,,,,,,,,,,,,,,,,,,
GOSH_A14,2023-11-10_13h28.56.287,two_step_task_legacy,2022.2.4,Win32,59.97361161,42,learning,1,resources/alien4_norm.png,0.4,resources/alien3_norm.png,0.6,TRUE,TRUE,2,0.955186594,purple,m,0.3508,alien3,TRUE,3,0.754679302,117,0,0.6,m,1.1544,0,186,186,186,1,0.7,0.3,0.6,0.4,TRUE,,,,,,,,,,,,,,,,,,,,,,,,,,,,,,,,,
GOSH_A14,2023-11-10_13h28.56.287,two_step_task_legacy,2022.2.4,Win32,59.97361161,42,learning,0,resources/alien2_norm.png,0.3,resources/alien1_norm.png,0.7,TRUE,TRUE,3,0.034742742,red,m,0.3204,alien1,TRUE,2,0.27019698,118,1,0.7,m,0.6106,0,187,187,187,1,0.7,0.3,0.6,0.4,TRUE,,,,,,,,,,,,,,,,,,,,,,,,,,,,,,,,,
GOSH_A14,2023-11-10_13h28.56.287,two_step_task_legacy,2022.2.4,Win32,59.97361161,42,learning,0,resources/alien1_norm.png,0.7,resources/alien2_norm.png,0.3,TRUE,TRUE,3,0.282489064,red,m,0.2666,alien1,TRUE,3,0.976303453,118,0,0.7,x,0.6184,0,188,188,188,1,0.7,0.3,0.6,0.4,FALSE,,,,,,,,,,,,,,,,,,,,,,,,,,,,,,,,,
GOSH_A14,2023-11-10_13h28.56.287,two_step_task_legacy,2022.2.4,Win32,59.97361161,42,learning,1,resources/alien3_norm.png,0.6,resources/alien4_norm.png,0.4,TRUE,TRUE,2,0.877186455,purple,m,0.2764,alien3,TRUE,3,0.755084019,118,0,0.6,x,0.6941,0,189,189,189,1,0.7,0.3,0.6,0.4,FALSE,,,,,,,,,,,,,,,,,,,,,,,,,,,,,,,,,
GOSH_A14,2023-11-10_13h28.56.287,two_step_task_legacy,2022.2.4,Win32,59.97361161,42,learning,1,resources/alien3_norm.png,0.6,resources/alien4_norm.png,0.4,TRUE,TRUE,2,0.720160437,purple,m,0.2891,alien3,TRUE,2,0.377068412,119,1,0.6,x,0.6345,0,190,190,190,1,0.7,0.3,0.6,0.4,FALSE,,,,,,,,,,,,,,,,,,,,,,,,,,,,,,,,,
GOSH_A14,2023-11-10_13h28.56.287,two_step_task_legacy,2022.2.4,Win32,59.97361161,42,learning,0,resources/alien3_norm.png,0.6,resources/alien4_norm.png,0.4,TRUE,TRUE,2,0.298897335,purple,x,0.2912,alien3,TRUE,2,0.220855007,120,1,0.6,x,0.5811,0,191,191,191,1,0.7,0.3,0.6,0.4,FALSE,,,,,,,,,,,,,,,,,,,,,,,,,,,,,,,,,
GOSH_A14,2023-11-10_13h28.56.287,two_step_task_legacy,2022.2.4,Win32,59.97361161,42,learning,0,resources/alien2_norm.png,0.3,resources/alien1_norm.png,0.7,TRUE,TRUE,3,0.164029761,red,m,0.5564,alien1,TRUE,3,0.743259759,120,0,0.7,m,0.4497,0,192,192,192,1,0.7,0.3,0.6,0.4,TRUE,,,,,,,,,,,,,,,,,,,,,,,,,,,,,,,,,
GOSH_A14,2023-11-10_13h28.56.287,two_step_task_legacy,2022.2.4,Win32,59.97361161,42,learning,0,resources/alien4_norm.png,0.4,resources/alien3_norm.png,0.6,TRUE,TRUE,2,0.406745579,purple,x,0.5948,alien3,TRUE,3,0.826578739,120,0,0.6,m,0.4369,0,193,193,193,1,0.7,0.3,0.6,0.4,TRUE,,,,,,,,,,,,,,,,,,,,,,,,,,,,,,,,,
GOSH_A14,2023-11-10_13h28.56.287,two_step_task_legacy,2022.2.4,Win32,59.97361161,42,learning,1,resources/alien2_norm.png,0.3,resources/alien1_norm.png,0.7,TRUE,TRUE,3,0.782807762,red,x,0.2702,alien1,TRUE,2,0.208272836,121,1,0.7,m,0.4866,0,194,194,194,1,0.7,0.3,0.6,0.4,TRUE,,,,,,,,,,,,,,,,,,,,,,,,,,,,,,,,,
GOSH_A14,2023-11-10_13h28.56.287,two_step_task_legacy,2022.2.4,Win32,59.97361161,42,learning,0,resources/alien4_norm.png,0.4,resources/alien3_norm.png,0.6,TRUE,TRUE,2,0.559293919,purple,x,0.3501,alien3,TRUE,2,0.024655311,122,1,0.6,m,0.6698,0,195,195,195,1,0.7,0.3,0.6,0.4,TRUE,,,,,,,,,,,,,,,,,,,,,,,,,,,,,,,,,
GOSH_A14,2023-11-10_13h28.56.287,two_step_task_legacy,2022.2.4,Win32,59.97361161,42,learning,0,resources/alien4_norm.png,0.4,resources/alien3_norm.png,0.6,TRUE,TRUE,2,0.485742683,purple,x,0.4025,alien3,TRUE,2,0.435342799,123,1,0.6,m,0.4053,0,196,196,196,1,0.7,0.3,0.6,0.4,TRUE,,,,,,,,,,,,,,,,,,,,,,,,,,,,,,,,,
GOSH_A14,2023-11-10_13h28.56.287,two_step_task_legacy,2022.2.4,Win32,59.97361161,42,learning,0,resources/alien3_norm.png,0.6,resources/alien4_norm.png,0.4,TRUE,TRUE,2,0.371485984,purple,x,0.2343,alien3,TRUE,2,0.567357138,124,1,0.6,x,0.4675,0,197,197,197,1,0.7,0.3,0.6,0.4,FALSE,,,,,,,,,,,,,,,,,,,,,,,,,,,,,,,,,
GOSH_A14,2023-11-10_13h28.56.287,two_step_task_legacy,2022.2.4,Win32,59.97361161,42,learning,0,resources/alien4_norm.png,0.4,resources/alien3_norm.png,0.6,TRUE,TRUE,2,0.527028237,purple,x,0.2341,alien3,TRUE,3,0.891562099,124,0,0.6,m,0.4394,0,198,198,198,1,0.7,0.3,0.6,0.4,TRUE,,,,,,,,,,,,,,,,,,,,,,,,,,,,,,,,,
GOSH_A14,2023-11-10_13h28.56.287,two_step_task_legacy,2022.2.4,Win32,59.97361161,42,learning,0,resources/alien3_norm.png,0.6,resources/alien4_norm.png,0.4,TRUE,TRUE,2,0.654008838,purple,x,0.2215,alien3,TRUE,3,0.812305158,124,0,0.6,x,0.5293,0,199,199,199,1,0.7,0.3,0.6,0.4,FALSE,,,,,,,,,,,,,,,,,,,,,,,,,,,,,,,,,
GOSH_A14,2023-11-10_13h28.56.287,two_step_task_legacy,2022.2.4,Win32,59.97361161,42,learning,1,resources/alien4_norm.png,0.4,resources/alien3_norm.png,0.6,TRUE,TRUE,2,0.857238138,purple,m,0.3021,alien3,TRUE,3,0.984717477,124,0,0.6,m,0.7063,0,200,200,200,1,0.7,0.3,0.6,0.4,TRUE,,,,,,,,,,,,,,,,,,,,,,,,,,,,,,,,,
GOSH_A14,2023-11-10_13h28.56.287,two_step_task_legacy,2022.2.4,Win32,59.97361161,42,learning,1,resources/alien3_norm.png,0.6,resources/alien4_norm.png,0.4,TRUE,TRUE,2,0.910027005,purple,m,0.2607,alien3,TRUE,2,0.283857865,125,1,0.6,x,0.5838,0,201,201,201,1,0.7,0.3,0.6,0.4,FALSE,,,,,,,,,,,,,,,,,,,,,,,,,,,,,,,,,
GOSH_A14,2023-11-10_13h28.56.287,two_step_task_legacy,2022.2.4,Win32,59.97361161,42,learning,1,resources/alien4_norm.png,0.4,resources/alien3_norm.png,0.6,TRUE,TRUE,2,0.791261723,purple,m,0.3005,alien3,TRUE,3,0.792516146,125,0,0.6,m,0.5731,0,202,202,202,1,0.7,0.3,0.6,0.4,TRUE,,,,,,,,,,,,,,,,,,,,,,,,,,,,,,,,,
GOSH_A14,2023-11-10_13h28.56.287,two_step_task_legacy,2022.2.4,Win32,59.97361161,42,learning,1,resources/alien3_norm.png,0.6,resources/alien4_norm.png,0.4,TRUE,TRUE,2,0.708422626,purple,m,0.2689,alien3,TRUE,3,0.70942161,125,0,0.6,x,0.6417,0,203,203,203,1,0.7,0.3,0.6,0.4,FALSE,,,,,,,,,,,,,,,,,,,,,,,,,,,,,,,,,
GOSH_A14,2023-11-10_13h28.56.287,two_step_task_legacy,2022.2.4,Win32,59.97361161,42,learning,0,resources/alien1_norm.png,0.7,resources/alien2_norm.png,0.3,TRUE,TRUE,3,0.419155648,red,m,0.3165,alien1,TRUE,2,0.587319646,126,1,0.7,x,0.6638,0,204,204,204,1,0.7,0.3,0.6,0.4,FALSE,,,,,,,,,,,,,,,,,,,,,,,,,,,,,,,,,
GOSH_A14,2023-11-10_13h28.56.287,two_step_task_legacy,2022.2.4,Win32,59.97361161,42,learning,0,resources/alien1_norm.png,0.7,resources/alien2_norm.png,0.3,TRUE,TRUE,3,0.637964173,red,m,0.3985,alien1,TRUE,3,0.98497269,126,0,0.7,x,0.4509,0,205,205,205,1,0.7,0.3,0.6,0.4,FALSE,,,,,,,,,,,,,,,,,,,,,,,,,,,,,,,,,
GOSH_A14,2023-11-10_13h28.56.287,two_step_task_legacy,2022.2.4,Win32,59.97361161,42,learning,0,resources/alien2_norm.png,0.3,resources/alien1_norm.png,0.7,TRUE,TRUE,3,0.2583362,red,m,0.2567,alien1,TRUE,2,0.362494574,127,1,0.7,m,0.6492,0,206,206,206,1,0.7,0.3,0.6,0.4,TRUE,,,,,,,,,,,,,,,,,,,,,,,,,,,,,,,,,
GOSH_A14,2023-11-10_13h28.56.287,two_step_task_legacy,2022.2.4,Win32,59.97361161,42,learning,0,resources/alien1_norm.png,0.7,resources/alien2_norm.png,0.3,TRUE,TRUE,3,0.348966274,red,m,0.2687,alien1,TRUE,3,0.868340952,127,0,0.7,x,1.2397,0,207,207,207,1,0.7,0.3,0.6,0.4,FALSE,,,,,,,,,,,,,,,,,,,,,,,,,,,,,,,,,
GOSH_A14,2023-11-10_13h28.56.287,two_step_task_legacy,2022.2.4,Win32,59.97361161,42,learning,0,resources/alien2_norm.png,0.3,resources/alien1_norm.png,0.7,TRUE,TRUE,3,0.684895773,red,m,0.259,alien2,TRUE,3,0.61360394,127,0,0.3,x,0.5264,0,208,208,208,1,0.7,0.3,0.6,0.4,TRUE,,,,,,,,,,,,,,,,,,,,,,,,,,,,,,,,,
GOSH_A14,2023-11-10_13h28.56.287,two_step_task_legacy,2022.2.4,Win32,59.97361161,42,learning,1,resources/alien3_norm.png,0.6,resources/alien4_norm.png,0.4,TRUE,TRUE,2,0.951529236,purple,m,0.2498,alien3,TRUE,2,0.259754202,128,1,0.6,x,0.6889,0,209,209,209,1,0.7,0.3,0.6,0.4,FALSE,,,,,,,,,,,,,,,,,,,,,,,,,,,,,,,,,
GOSH_A14,2023-11-10_13h28.56.287,two_step_task_legacy,2022.2.4,Win32,59.97361161,42,learning,1,resources/alien2_norm.png,0.3,resources/alien1_norm.png,0.7,TRUE,TRUE,3,0.799498497,red,x,0.2509,alien1,TRUE,2,0.523239975,129,1,0.7,m,1.0757,0,210,210,210,1,0.7,0.3,0.6,0.4,TRUE,,,,,,,,,,,,,,,,,,,,,,,,,,,,,,,,,
GOSH_A14,2023-11-10_13h28.56.287,two_step_task_legacy,2022.2.4,Win32,59.97361161,42,learning,1,resources/alien1_norm.png,0.7,resources/alien2_norm.png,0.3,TRUE,TRUE,3,0.711349964,red,x,0.4374,alien1,TRUE,2,0.273187215,130,1,0.7,x,0.6004,0,211,211,211,1,0.7,0.3,0.6,0.4,FALSE,,,,,,,,,,,,,,,,,,,,,,,,,,,,,,,,,
GOSH_A14,2023-11-10_13h28.56.287,two_step_task_legacy,2022.2.4,Win32,59.97361161,42,learning,0,resources/alien4_norm.png,0.4,resources/alien3_norm.png,0.6,TRUE,TRUE,2,0.566309021,purple,x,0.5498,alien3,TRUE,2,0.292141512,131,1,0.6,m,0.5466,0,212,212,212,1,0.7,0.3,0.6,0.4,TRUE,,,,,,,,,,,,,,,,,,,,,,,,,,,,,,,,,
GOSH_A14,2023-11-10_13h28.56.287,two_step_task_legacy,2022.2.4,Win32,59.97361161,42,learning,0,resources/alien3_norm.png,0.6,resources/alien4_norm.png,0.4,TRUE,TRUE,2,0.564035212,purple,x,0.2068,alien3,TRUE,3,0.639757094,131,0,0.6,x,0.4667,0,213,213,213,1,0.7,0.3,0.6,0.4,FALSE,,,,,,,,,,,,,,,,,,,,,,,,,,,,,,,,,
GOSH_A14,2023-11-10_13h28.56.287,two_step_task_legacy,2022.2.4,Win32,59.97361161,42,learning,1,resources/alien2_norm.png,0.3,resources/alien1_norm.png,0.7,TRUE,TRUE,3,0.865190617,red,x,0.183,alien1,TRUE,3,0.827837548,131,0,0.7,m,0.6867,0,214,214,214,1,0.7,0.3,0.6,0.4,TRUE,,,,,,,,,,,,,,,,,,,,,,,,,,,,,,,,,
GOSH_A14,2023-11-10_13h28.56.287,two_step_task_legacy,2022.2.4,Win32,59.97361161,42,learning,1,resources/alien1_norm.png,0.7,resources/alien2_norm.png,0.3,TRUE,TRUE,3,0.709183184,red,x,0.2164,alien1,TRUE,2,0.499676716,132,1,0.7,x,0.4883,0,215,215,215,1,0.7,0.3,0.6,0.4,FALSE,,,,,,,,,,,,,,,,,,,,,,,,,,,,,,,,,
GOSH_A14,2023-11-10_13h28.56.287,two_step_task_legacy,2022.2.4,Win32,59.97361161,42,learning,0,resources/alien4_norm.png,0.4,resources/alien3_norm.png,0.6,TRUE,TRUE,2,0.108603933,purple,x,0.2507,alien3,TRUE,2,0.092850858,133,1,0.6,m,0.5472,0,216,216,216,1,0.7,0.3,0.6,0.4,TRUE,,,,,,,,,,,,,,,,,,,,,,,,,,,,,,,,,
GOSH_A14,2023-11-10_13h28.56.287,two_step_task_legacy,2022.2.4,Win32,59.97361161,42,learning,0,resources/alien4_norm.png,0.4,resources/alien3_norm.png,0.6,TRUE,TRUE,2,0.494671994,purple,x,0.2167,alien3,TRUE,3,0.66160509,133,0,0.6,m,0.4341,0,217,217,217,1,0.7,0.3,0.6,0.4,TRUE,,,,,,,,,,,,,,,,,,,,,,,,,,,,,,,,,
GOSH_A14,2023-11-10_13h28.56.287,two_step_task_legacy,2022.2.4,Win32,59.97361161,42,learning,1,resources/alien2_norm.png,0.3,resources/alien1_norm.png,0.7,TRUE,TRUE,3,0.85440529,red,x,0.2095,alien1,TRUE,3,0.74082718,133,0,0.7,m,0.6301,0,218,218,218,1,0.7,0.3,0.6,0.4,TRUE,,,,,,,,,,,,,,,,,,,,,,,,,,,,,,,,,
GOSH_A14,2023-11-10_13h28.56.287,two_step_task_legacy,2022.2.4,Win32,59.97361161,42,learning,1,resources/alien3_norm.png,0.6,resources/alien4_norm.png,0.4,TRUE,TRUE,2,0.748175603,purple,m,0.1841,alien3,TRUE,3,0.982050535,133,0,0.6,x,0.6114,0,219,219,219,1,0.7,0.3,0.6,0.4,FALSE,,,,,,,,,,,,,,,,,,,,,,,,,,,,,,,,,
GOSH_A14,2023-11-10_13h28.56.287,two_step_task_legacy,2022.2.4,Win32,59.97361161,42,learning,0,resources/alien1_norm.png,0.7,resources/alien2_norm.png,0.3,TRUE,TRUE,3,0.204227858,red,m,0.2665,alien1,TRUE,3,0.761590845,133,0,0.7,x,0.7107,0,220,220,220,1,0.7,0.3,0.6,0.4,FALSE,,,,,,,,,,,,,,,,,,,,,,,,,,,,,,,,,
GOSH_A14,2023-11-10_13h28.56.287,two_step_task_legacy,2022.2.4,Win32,59.97361161,42,learning,0,resources/alien3_norm.png,0.6,resources/alien4_norm.png,0.4,TRUE,TRUE,2,0.324577409,purple,x,0.2342,alien4,TRUE,3,0.971256186,133,0,0.4,m,0.6558,0,221,221,221,1,0.7,0.3,0.6,0.4,FALSE,,,,,,,,,,,,,,,,,,,,,,,,,,,,,,,,,
GOSH_A14,2023-11-10_13h28.56.287,two_step_task_legacy,2022.2.4,Win32,59.97361161,42,learning,0,resources/alien4_norm.png,0.4,resources/alien3_norm.png,0.6,TRUE,TRUE,2,0.395251847,purple,x,0.2007,alien3,TRUE,3,0.894110736,133,0,0.6,m,0.7338,0,222,222,222,1,0.7,0.3,0.6,0.4,TRUE,,,,,,,,,,,,,,,,,,,,,,,,,,,,,,,,,
GOSH_A14,2023-11-10_13h28.56.287,two_step_task_legacy,2022.2.4,Win32,59.97361161,42,learning,0,resources/alien4_norm.png,0.4,resources/alien3_norm.png,0.6,TRUE,TRUE,2,0.489612697,purple,x,0.2541,alien4,TRUE,2,0.331754184,134,1,0.4,x,0.4002,0,223,223,223,1,0.7,0.3,0.6,0.4,TRUE,,,,,,,,,,,,,,,,,,,,,,,,,,,,,,,,,
GOSH_A14,2023-11-10_13h28.56.287,two_step_task_legacy,2022.2.4,Win32,59.97361161,42,learning,0,resources/alien3_norm.png,0.6,resources/alien4_norm.png,0.4,TRUE,TRUE,2,0.456957861,purple,x,0.1673,alien4,TRUE,3,0.459415198,134,0,0.4,m,0.4399,0,224,224,224,1,0.7,0.3,0.6,0.4,FALSE,,,,,,,,,,,,,,,,,,,,,,,,,,,,,,,,,
GOSH_A14,2023-11-10_13h28.56.287,two_step_task_legacy,2022.2.4,Win32,59.97361161,42,learning,1,resources/alien4_norm.png,0.4,resources/alien3_norm.png,0.6,TRUE,TRUE,2,0.884753982,purple,m,0.1039,alien4,TRUE,2,0.146930778,135,1,0.4,x,0.6342,0,225,225,225,1,0.7,0.3,0.6,0.4,TRUE,,,,,,,,,,,,,,,,,,,,,,,,,,,,,,,,,
GOSH_A14,2023-11-10_13h28.56.287,two_step_task_legacy,2022.2.4,Win32,59.97361161,42,learning,0,resources/alien1_norm.png,0.7,resources/alien2_norm.png,0.3,TRUE,TRUE,3,0.059493397,red,m,0.2586,alien2,TRUE,3,0.848849768,135,0,0.3,m,0.672,0,226,226,226,1,0.7,0.3,0.6,0.4,FALSE,,,,,,,,,,,,,,,,,,,,,,,,,,,,,,,,,
GOSH_A14,2023-11-10_13h28.56.287,two_step_task_legacy,2022.2.4,Win32,59.97361161,42,learning,0,resources/alien1_norm.png,0.7,resources/alien2_norm.png,0.3,TRUE,TRUE,3,0.666207133,red,m,0.0643,alien1,TRUE,2,0.554967283,136,1,0.7,x,0.5665,0,227,227,227,1,0.7,0.3,0.6,0.4,FALSE,,,,,,,,,,,,,,,,,,,,,,,,,,,,,,,,,
GOSH_A14,2023-11-10_13h28.56.287,two_step_task_legacy,2022.2.4,Win32,59.97361161,42,learning,0,resources/alien4_norm.png,0.4,resources/alien3_norm.png,0.6,TRUE,TRUE,2,0.299299765,purple,x,0.2856,alien4,TRUE,3,0.896933216,136,0,0.4,x,0.597,0,228,228,228,1,0.7,0.3,0.6,0.4,TRUE,,,,,,,,,,,,,,,,,,,,,,,,,,,,,,,,,
GOSH_A14,2023-11-10_13h28.56.287,two_step_task_legacy,2022.2.4,Win32,59.97361161,42,learning,0,resources/alien4_norm.png,0.4,resources/alien3_norm.png,0.6,TRUE,TRUE,2,0.048460441,purple,x,0.1861,alien4,TRUE,3,0.623142059,136,0,0.4,x,0.5083,0,229,229,229,1,0.7,0.3,0.6,0.4,TRUE,,,,,,,,,,,,,,,,,,,,,,,,,,,,,,,,,
GOSH_A14,2023-11-10_13h28.56.287,two_step_task_legacy,2022.2.4,Win32,59.97361161,42,learning,0,resources/alien2_norm.png,0.3,resources/alien1_norm.png,0.7,TRUE,TRUE,3,0.482440818,red,m,0.2198,alien1,TRUE,3,0.868369487,136,0,0.7,m,0.6557,0,230,230,230,1,0.7,0.3,0.6,0.4,TRUE,,,,,,,,,,,,,,,,,,,,,,,,,,,,,,,,,
GOSH_A14,2023-11-10_13h28.56.287,two_step_task_legacy,2022.2.4,Win32,59.97361161,42,learning,1,resources/alien4_norm.png,0.4,resources/alien3_norm.png,0.6,TRUE,TRUE,2,0.73096849,purple,m,0.2439,alien4,TRUE,2,0.156691826,137,1,0.4,x,0.6685,0,231,231,231,1,0.7,0.3,0.6,0.4,TRUE,,,,,,,,,,,,,,,,,,,,,,,,,,,,,,,,,
GOSH_A14,2023-11-10_13h28.56.287,two_step_task_legacy,2022.2.4,Win32,59.97361161,42,learning,0,resources/alien1_norm.png,0.7,resources/alien2_norm.png,0.3,TRUE,TRUE,3,0.635113143,red,m,0.2665,alien1,TRUE,2,0.181381302,138,1,0.7,x,0.429,0,232,232,232,1,0.7,0.3,0.6,0.4,FALSE,,,,,,,,,,,,,,,,,,,,,,,,,,,,,,,,,
GOSH_A14,2023-11-10_13h28.56.287,two_step_task_legacy,2022.2.4,Win32,59.97361161,42,learning,0,resources/alien2_norm.png,0.3,resources/alien1_norm.png,0.7,TRUE,TRUE,3,0.284236642,red,m,0.2629,alien1,TRUE,2,0.631619665,139,1,0.7,m,0.4962,0,233,233,233,1,0.7,0.3,0.6,0.4,TRUE,,,,,,,,,,,,,,,,,,,,,,,,,,,,,,,,,
GOSH_A14,2023-11-10_13h28.56.287,two_step_task_legacy,2022.2.4,Win32,59.97361161,42,learning,0,resources/alien1_norm.png,0.7,resources/alien2_norm.png,0.3,TRUE,TRUE,3,0.065313575,red,m,0.2428,alien1,TRUE,3,0.91276924,139,0,0.7,x,0.4242,0,234,234,234,1,0.7,0.3,0.6,0.4,FALSE,,,,,,,,,,,,,,,,,,,,,,,,,,,,,,,,,
GOSH_A14,2023-11-10_13h28.56.287,two_step_task_legacy,2022.2.4,Win32,59.97361161,42,learning,0,resources/alien1_norm.png,0.7,resources/alien2_norm.png,0.3,TRUE,TRUE,3,0.358315663,red,m,0.2715,alien1,TRUE,3,0.809115945,139,0,0.7,x,0.4369,0,235,235,235,1,0.7,0.3,0.6,0.4,FALSE,,,,,,,,,,,,,,,,,,,,,,,,,,,,,,,,,
GOSH_A14,2023-11-10_13h28.56.287,two_step_task_legacy,2022.2.4,Win32,59.97361161,42,learning,1,resources/alien3_norm.png,0.6,resources/alien4_norm.png,0.4,TRUE,TRUE,2,0.722235224,purple,m,0.2751,alien3,TRUE,2,0.452334883,140,1,0.6,x,0.8779,0,236,236,236,1,0.7,0.3,0.6,0.4,FALSE,,,,,,,,,,,,,,,,,,,,,,,,,,,,,,,,,
GOSH_A14,2023-11-10_13h28.56.287,two_step_task_legacy,2022.2.4,Win32,59.97361161,42,learning,1,resources/alien1_norm.png,0.7,resources/alien2_norm.png,0.3,TRUE,TRUE,3,0.847047696,red,x,0.4654,alien2,TRUE,3,0.702170145,140,0,0.3,m,1.0215,0,237,237,237,1,0.7,0.3,0.6,0.4,FALSE,,,,,,,,,,,,,,,,,,,,,,,,,,,,,,,,,
GOSH_A14,2023-11-10_13h28.56.287,two_step_task_legacy,2022.2.4,Win32,59.97361161,42,learning,0,resources/alien2_norm.png,0.3,resources/alien1_norm.png,0.7,TRUE,TRUE,3,0.620738263,red,m,0.2506,alien1,TRUE,2,0.477053564,141,1,0.7,m,0.9343,0,238,238,238,1,0.7,0.3,0.6,0.4,TRUE,,,,,,,,,,,,,,,,,,,,,,,,,,,,,,,,,
GOSH_A14,2023-11-10_13h28.56.287,two_step_task_legacy,2022.2.4,Win32,59.97361161,42,learning,1,resources/alien3_norm.png,0.6,resources/alien4_norm.png,0.4,TRUE,TRUE,2,0.738879603,purple,m,0.8933,alien3,TRUE,2,0.461941682,142,1,0.6,x,0.5936,0,239,239,239,1,0.7,0.3,0.6,0.4,FALSE,,,,,,,,,,,,,,,,,,,,,,,,,,,,,,,,,
GOSH_A14,2023-11-10_13h28.56.287,two_step_task_legacy,2022.2.4,Win32,59.97361161,42,learning,0,resources/alien3_norm.png,0.6,resources/alien4_norm.png,0.4,TRUE,TRUE,2,0.361943673,purple,x,0.2252,alien3,TRUE,3,0.81719899,142,0,0.6,x,0.3875,0,240,240,240,1,0.7,0.3,0.6,0.4,FALSE,,,,,,,,,,,,,,,,,,,,,,,,,,,,,,,,,
GOSH_A14,2023-11-10_13h28.56.287,two_step_task_legacy,2022.2.4,Win32,59.97361161,42,learning,0,resources/alien3_norm.png,0.6,resources/alien4_norm.png,0.4,TRUE,TRUE,2,0.328474146,purple,x,0.2544,alien3,TRUE,2,0.226837247,143,1,0.6,x,0.3506,0,241,241,241,1,0.7,0.3,0.6,0.4,FALSE,,,,,,,,,,,,,,,,,,,,,,,,,,,,,,,,,
GOSH_A14,2023-11-10_13h28.56.287,two_step_task_legacy,2022.2.4,Win32,59.97361161,42,learning,1,resources/alien2_norm.png,0.3,resources/alien1_norm.png,0.7,TRUE,TRUE,3,0.740828851,red,x,0.2667,alien1,TRUE,2,0.144715385,144,1,0.7,m,0.7286,0,242,242,242,1,0.7,0.3,0.6,0.4,TRUE,,,,,,,,,,,,,,,,,,,,,,,,,,,,,,,,,
GOSH_A14,2023-11-10_13h28.56.287,two_step_task_legacy,2022.2.4,Win32,59.97361161,42,learning,0,resources/alien3_norm.png,0.6,resources/alien4_norm.png,0.4,TRUE,TRUE,2,0.064418856,purple,x,0.2666,alien3,TRUE,3,0.717651786,144,0,0.6,x,0.3534,0,243,243,243,1,0.7,0.3,0.6,0.4,FALSE,,,,,,,,,,,,,,,,,,,,,,,,,,,,,,,,,
GOSH_A14,2023-11-10_13h28.56.287,two_step_task_legacy,2022.2.4,Win32,59.97361161,42,learning,0,resources/alien3_norm.png,0.6,resources/alien4_norm.png,0.4,TRUE,TRUE,2,0.469627842,purple,x,0.2558,alien3,TRUE,2,0.313767508,145,1,0.6,x,0.3508,0,244,244,244,1,0.7,0.3,0.6,0.4,FALSE,,,,,,,,,,,,,,,,,,,,,,,,,,,,,,,,,
GOSH_A14,2023-11-10_13h28.56.287,two_step_task_legacy,2022.2.4,Win32,59.97361161,42,learning,0,resources/alien4_norm.png,0.4,resources/alien3_norm.png,0.6,TRUE,TRUE,2,0.335791408,purple,x,0.2287,alien3,TRUE,2,0.128870624,146,1,0.6,m,0.5291,0,245,245,245,1,0.7,0.3,0.6,0.4,TRUE,,,,,,,,,,,,,,,,,,,,,,,,,,,,,,,,,
GOSH_A14,2023-11-10_13h28.56.287,two_step_task_legacy,2022.2.4,Win32,59.97361161,42,learning,1,resources/alien2_norm.png,0.3,resources/alien1_norm.png,0.7,TRUE,TRUE,3,0.809741822,red,x,0.2166,alien1,TRUE,2,0.505701474,147,1,0.7,m,0.7456,0,246,246,246,1,0.7,0.3,0.6,0.4,TRUE,,,,,,,,,,,,,,,,,,,,,,,,,,,,,,,,,
GOSH_A14,2023-11-10_13h28.56.287,two_step_task_legacy,2022.2.4,Win32,59.97361161,42,learning,0,resources/alien4_norm.png,0.4,resources/alien3_norm.png,0.6,TRUE,TRUE,2,0.037340794,purple,x,0.241,alien3,TRUE,2,0.51385439,148,1,0.6,m,0.4186,0,247,247,247,1,0.7,0.3,0.6,0.4,TRUE,,,,,,,,,,,,,,,,,,,,,,,,,,,,,,,,,
GOSH_A14,2023-11-10_13h28.56.287,two_step_task_legacy,2022.2.4,Win32,59.97361161,42,learning,0,resources/alien4_norm.png,0.4,resources/alien3_norm.png,0.6,TRUE,TRUE,2,0.258310411,purple,x,0.1977,alien3,TRUE,2,0.025153492,149,1,0.6,m,0.4244,0,248,248,248,1,0.7,0.3,0.6,0.4,TRUE,,,,,,,,,,,,,,,,,,,,,,,,,,,,,,,,,
GOSH_A14,2023-11-10_13h28.56.287,two_step_task_legacy,2022.2.4,Win32,59.97361161,42,learning,1,resources/alien1_norm.png,0.7,resources/alien2_norm.png,0.3,TRUE,TRUE,3,0.715531343,red,x,0.3173,alien1,TRUE,3,0.9634935,149,0,0.7,x,0.7119,0,249,249,249,1,0.7,0.3,0.6,0.4,FALSE,,,,,,,,,,,,,,,,,,,,,,,,,,,,,,,,,
GOSH_A14,2023-11-10_13h28.56.287,two_step_task_legacy,2022.2.4,Win32,59.97361161,42,learning,0,resources/alien3_norm.png,0.6,resources/alien4_norm.png,0.4,TRUE,TRUE,2,0.270483019,purple,x,0.2373,alien3,TRUE,2,0.507454657,150,1,0.6,x,0.4334,0,250,250,250,1,0.7,0.3,0.6,0.4,FALSE,,,,,,,,,,,,,,,,,,,,,,,,,,,,,,,,,
GOSH_A14,2023-11-10_13h28.56.287,two_step_task_legacy,2022.2.4,Win32,59.97361161,42,learning,0,resources/alien4_norm.png,0.4,resources/alien3_norm.png,0.6,TRUE,TRUE,2,0.580584325,purple,x,0.2372,alien3,TRUE,3,0.622765248,150,0,0.6,m,0.5657,0,251,251,251,1,0.7,0.3,0.6,0.4,TRUE,,,,,,,,,,,,,,,,,,,,,,,,,,,,,,,,,
GOSH_A14,2023-11-10_13h28.56.287,two_step_task_legacy,2022.2.4,Win32,59.97361161,42,learning,1,resources/alien2_norm.png,0.3,resources/alien1_norm.png,0.7,TRUE,TRUE,3,0.805748793,red,x,0.2665,alien1,TRUE,3,0.850477163,150,0,0.7,m,0.6388,0,252,252,252,1,0.7,0.3,0.6,0.4,TRUE,,,,,,,,,,,,,,,,,,,,,,,,,,,,,,,,,
GOSH_A14,2023-11-10_13h28.56.287,two_step_task_legacy,2022.2.4,Win32,59.97361161,42,learning,0,resources/alien4_norm.png,0.4,resources/alien3_norm.png,0.6,TRUE,TRUE,2,0.477825693,purple,x,0.2037,alien3,TRUE,2,0.342753882,151,1,0.6,m,0.3499,0,253,253,253,1,0.7,0.3,0.6,0.4,TRUE,,,,,,,,,,,,,,,,,,,,,,,,,,,,,,,,,
GOSH_A14,2023-11-10_13h28.56.287,two_step_task_legacy,2022.2.4,Win32,59.97361161,42,learning,0,resources/alien3_norm.png,0.6,resources/alien4_norm.png,0.4,TRUE,TRUE,2,0.619749749,purple,x,0.2509,alien3,TRUE,2,0.451068846,152,1,0.6,x,0.4509,0,254,254,254,1,0.7,0.3,0.6,0.4,FALSE,,,,,,,,,,,,,,,,,,,,,,,,,,,,,,,,,
GOSH_A14,2023-11-10_13h28.56.287,two_step_task_legacy,2022.2.4,Win32,59.97361161,42,learning,0,resources/alien4_norm.png,0.4,resources/alien3_norm.png,0.6,TRUE,TRUE,2,0.635757006,purple,x,0.2739,alien3,TRUE,2,0.575705202,153,1,0.6,m,0.5291,0,255,255,255,1,0.7,0.3,0.6,0.4,TRUE,,,,,,,,,,,,,,,,,,,,,,,,,,,,,,,,,
GOSH_A14,2023-11-10_13h28.56.287,two_step_task_legacy,2022.2.4,Win32,59.97361161,42,learning,1,resources/alien2_norm.png,0.3,resources/alien1_norm.png,0.7,TRUE,TRUE,3,0.931026682,red,x,0.2442,alien2,TRUE,2,0.273285619,154,1,0.3,x,0.8606,0,256,256,256,1,0.7,0.3,0.6,0.4,TRUE,,,,,,,,,,,,,,,,,,,,,,,,,,,,,,,,,
GOSH_A14,2023-11-10_13h28.56.287,two_step_task_legacy,2022.2.4,Win32,59.97361161,42,learning,0,resources/alien4_norm.png,0.4,resources/alien3_norm.png,0.6,TRUE,TRUE,2,0.108622331,purple,x,0.2708,alien3,TRUE,2,0.319193251,155,1,0.6,m,0.4834,0,257,257,257,1,0.7,0.3,0.6,0.4,TRUE,,,,,,,,,,,,,,,,,,,,,,,,,,,,,,,,,
GOSH_A14,2023-11-10_13h28.56.287,two_step_task_legacy,2022.2.4,Win32,59.97361161,42,learning,0,resources/alien3_norm.png,0.6,resources/alien4_norm.png,0.4,TRUE,TRUE,2,0.063616318,purple,x,0.2876,alien3,TRUE,2,0.346324336,156,1,0.6,x,0.418,0,258,258,258,1,0.7,0.3,0.6,0.4,FALSE,,,,,,,,,,,,,,,,,,,,,,,,,,,,,,,,,
GOSH_A14,2023-11-10_13h28.56.287,two_step_task_legacy,2022.2.4,Win32,59.97361161,42,learning,0,resources/alien3_norm.png,0.6,resources/alien4_norm.png,0.4,TRUE,TRUE,2,0.54514,purple,x,0.2252,alien3,TRUE,2,0.315795245,157,1,0.6,x,0.4413,0,259,259,259,1,0.7,0.3,0.6,0.4,FALSE,,,,,,,,,,,,,,,,,,,,,,,,,,,,,,,,,
GOSH_A14,2023-11-10_13h28.56.287,two_step_task_legacy,2022.2.4,Win32,59.97361161,42,learning,0,resources/alien3_norm.png,0.6,resources/alien4_norm.png,0.4,TRUE,TRUE,2,0.099860401,purple,x,0.275,alien3,TRUE,2,0.270647293,158,1,0.6,x,0.3828,0,260,260,260,1,0.7,0.3,0.6,0.4,FALSE,,,,,,,,,,,,,,,,,,,,,,,,,,,,,,,,,
GOSH_A14,2023-11-10_13h28.56.287,two_step_task_legacy,2022.2.4,Win32,59.97361161,42,learning,0,resources/alien3_norm.png,0.6,resources/alien4_norm.png,0.4,TRUE,TRUE,2,0.627495049,purple,x,0.2224,alien3,TRUE,3,0.883885745,158,0,0.6,x,0.3338,0,261,261,261,1,0.7,0.3,0.6,0.4,FALSE,,,,,,,,,,,,,,,,,,,,,,,,,,,,,,,,,
GOSH_A14,2023-11-10_13h28.56.287,two_step_task_legacy,2022.2.4,Win32,59.97361161,42,learning,0,resources/alien3_norm.png,0.6,resources/alien4_norm.png,0.4,TRUE,TRUE,2,0.317011366,purple,x,0.1952,alien3,TRUE,3,0.670172584,158,0,0.6,x,0.4206,0,262,262,262,1,0.7,0.3,0.6,0.4,FALSE,,,,,,,,,,,,,,,,,,,,,,,,,,,,,,,,,
GOSH_A14,2023-11-10_13h28.56.287,two_step_task_legacy,2022.2.4,Win32,59.97361161,42,learning,1,resources/alien2_norm.png,0.3,resources/alien1_norm.png,0.7,TRUE,TRUE,3,0.820884366,red,x,0.1705,alien2,TRUE,2,0.020575343,159,1,0.3,x,1.1864,0,263,263,263,1,0.7,0.3,0.6,0.4,TRUE,,,,,,,,,,,,,,,,,,,,,,,,,,,,,,,,,
GOSH_A14,2023-11-10_13h28.56.287,two_step_task_legacy,2022.2.4,Win32,59.97361161,42,learning,0,resources/alien2_norm.png,0.3,resources/alien1_norm.png,0.7,TRUE,TRUE,3,0.069731924,red,m,0.2355,alien2,TRUE,2,0.027403721,160,1,0.3,x,0.3892,0,264,264,264,1,0.7,0.3,0.6,0.4,TRUE,,,,,,,,,,,,,,,,,,,,,,,,,,,,,,,,,
GOSH_A14,2023-11-10_13h28.56.287,two_step_task_legacy,2022.2.4,Win32,59.97361161,42,learning,0,resources/alien1_norm.png,0.7,resources/alien2_norm.png,0.3,TRUE,TRUE,3,0.505885075,red,m,0.2482,alien2,TRUE,2,0.147799449,161,1,0.3,m,0.4391,0,265,265,265,1,0.7,0.3,0.6,0.4,FALSE,,,,,,,,,,,,,,,,,,,,,,,,,,,,,,,,,
GOSH_A14,2023-11-10_13h28.56.287,two_step_task_legacy,2022.2.4,Win32,59.97361161,42,learning,0,resources/alien2_norm.png,0.3,resources/alien1_norm.png,0.7,TRUE,TRUE,3,0.274254904,red,m,0.2506,alien2,TRUE,3,0.853501049,161,0,0.3,x,0.43,0,266,266,266,1,0.7,0.3,0.6,0.4,TRUE,,,,,,,,,,,,,,,,,,,,,,,,,,,,,,,,,
GOSH_A14,2023-11-10_13h28.56.287,two_step_task_legacy,2022.2.4,Win32,59.97361161,42,learning,0,resources/alien2_norm.png,0.3,resources/alien1_norm.png,0.7,TRUE,TRUE,3,0.218057355,red,m,0.2145,alien2,TRUE,2,0.216854197,162,1,0.3,x,0.3744,0,267,267,267,1,0.7,0.3,0.6,0.4,TRUE,,,,,,,,,,,,,,,,,,,,,,,,,,,,,,,,,
GOSH_A14,2023-11-10_13h28.56.287,two_step_task_legacy,2022.2.4,Win32,59.97361161,42,learning,1,resources/alien3_norm.png,0.6,resources/alien4_norm.png,0.4,TRUE,TRUE,2,0.875385031,purple,m,0.2676,alien3,TRUE,3,0.741745998,162,0,0.6,x,0.8461,0,268,268,268,1,0.7,0.3,0.6,0.4,FALSE,,,,,,,,,,,,,,,,,,,,,,,,,,,,,,,,,
GOSH_A14,2023-11-10_13h28.56.287,two_step_task_legacy,2022.2.4,Win32,59.97361161,42,learning,0,resources/alien1_norm.png,0.7,resources/alien2_norm.png,0.3,TRUE,TRUE,3,0.349204423,red,m,0.2528,alien2,TRUE,3,0.61984509,162,0,0.3,m,0.4512,0,269,269,269,1,0.7,0.3,0.6,0.4,FALSE,,,,,,,,,,,,,,,,,,,,,,,,,,,,,,,,,
GOSH_A14,2023-11-10_13h28.56.287,two_step_task_legacy,2022.2.4,Win32,59.97361161,42,learning,1,resources/alien4_norm.png,0.4,resources/alien3_norm.png,0.6,TRUE,TRUE,2,0.771583081,purple,m,0.1839,alien4,TRUE,2,0.377748279,163,1,0.4,x,0.8281,0,270,270,270,1,0.7,0.3,0.6,0.4,TRUE,,,,,,,,,,,,,,,,,,,,,,,,,,,,,,,,,
GOSH_A14,2023-11-10_13h28.56.287,two_step_task_legacy,2022.2.4,Win32,59.97361161,42,learning,0,resources/alien1_norm.png,0.7,resources/alien2_norm.png,0.3,TRUE,TRUE,3,0.27043806,red,m,0.2506,alien2,TRUE,3,0.483687326,163,0,0.3,m,0.4054,0,271,271,271,1,0.7,0.3,0.6,0.4,FALSE,,,,,,,,,,,,,,,,,,,,,,,,,,,,,,,,,
GOSH_A14,2023-11-10_13h28.56.287,two_step_task_legacy,2022.2.4,Win32,59.97361161,42,learning,0,resources/alien4_norm.png,0.4,resources/alien3_norm.png,0.6,TRUE,TRUE,2,0.484318885,purple,x,0.406,alien4,TRUE,3,0.444553071,163,0,0.4,x,0.5415,0,272,272,272,1,0.7,0.3,0.6,0.4,TRUE,,,,,,,,,,,,,,,,,,,,,,,,,,,,,,,,,
GOSH_A14,2023-11-10_13h28.56.287,two_step_task_legacy,2022.2.4,Win32,59.97361161,42,learning,0,resources/alien1_norm.png,0.7,resources/alien2_norm.png,0.3,TRUE,TRUE,3,0.654429993,red,m,0.1746,alien2,TRUE,2,0.168697475,164,1,0.3,m,0.3544,0,273,273,273,1,0.7,0.3,0.6,0.4,FALSE,,,,,,,,,,,,,,,,,,,,,,,,,,,,,,,,,
GOSH_A14,2023-11-10_13h28.56.287,two_step_task_legacy,2022.2.4,Win32,59.97361161,42,learning,0,resources/alien2_norm.png,0.3,resources/alien1_norm.png,0.7,TRUE,TRUE,3,0.306763024,red,m,0.2885,alien2,TRUE,3,0.632950518,164,0,0.3,x,0.5465,0,274,274,274,1,0.7,0.3,0.6,0.4,TRUE,,,,,,,,,,,,,,,,,,,,,,,,,,,,,,,,,
GOSH_A14,2023-11-10_13h28.56.287,two_step_task_legacy,2022.2.4,Win32,59.97361161,42,learning,0,resources/alien2_norm.png,0.3,resources/alien1_norm.png,0.7,TRUE,TRUE,3,0.143665765,red,m,0.2062,alien2,TRUE,2,0.104800774,165,1,0.3,x,0.3727,0,275,275,275,1,0.7,0.3,0.6,0.4,TRUE,,,,,,,,,,,,,,,,,,,,,,,,,,,,,,,,,
GOSH_A14,2023-11-10_13h28.56.287,two_step_task_legacy,2022.2.4,Win32,59.97361161,42,learning,0,resources/alien1_norm.png,0.7,resources/alien2_norm.png,0.3,TRUE,TRUE,3,0.331146648,red,m,0.2374,alien2,TRUE,3,0.945559828,165,0,0.3,m,0.4167,0,276,276,276,1,0.7,0.3,0.6,0.4,FALSE,,,,,,,,,,,,,,,,,,,,,,,,,,,,,,,,,
GOSH_A14,2023-11-10_13h28.56.287,two_step_task_legacy,2022.2.4,Win32,59.97361161,42,learning,0,resources/alien4_norm.png,0.4,resources/alien3_norm.png,0.6,TRUE,TRUE,2,0.698727736,purple,x,0.1866,alien4,TRUE,2,0.165296843,166,1,0.4,x,0.3944,0,277,277,277,1,0.7,0.3,0.6,0.4,TRUE,,,,,,,,,,,,,,,,,,,,,,,,,,,,,,,,,
GOSH_A14,2023-11-10_13h28.56.287,two_step_task_legacy,2022.2.4,Win32,59.97361161,42,learning,0,resources/alien3_norm.png,0.6,resources/alien4_norm.png,0.4,TRUE,TRUE,2,0.013375951,purple,x,0.2723,alien4,TRUE,3,0.509634336,166,0,0.4,m,0.5509,0,278,278,278,1,0.7,0.3,0.6,0.4,FALSE,,,,,,,,,,,,,,,,,,,,,,,,,,,,,,,,,
GOSH_A14,2023-11-10_13h28.56.287,two_step_task_legacy,2022.2.4,Win32,59.97361161,42,learning,1,resources/alien3_norm.png,0.6,resources/alien4_norm.png,0.4,TRUE,TRUE,2,0.901215482,purple,m,0.2284,alien4,TRUE,2,0.395348907,167,1,0.4,m,0.773,0,279,279,279,1,0.7,0.3,0.6,0.4,FALSE,,,,,,,,,,,,,,,,,,,,,,,,,,,,,,,,,
GOSH_A14,2023-11-10_13h28.56.287,two_step_task_legacy,2022.2.4,Win32,59.97361161,42,learning,0,resources/alien2_norm.png,0.3,resources/alien1_norm.png,0.7,TRUE,TRUE,3,0.046387736,red,m,0.3224,alien2,TRUE,3,0.751475058,167,0,0.3,x,0.5156,0,280,280,280,1,0.7,0.3,0.6,0.4,TRUE,,,,,,,,,,,,,,,,,,,,,,,,,,,,,,,,,
GOSH_A14,2023-11-10_13h28.56.287,two_step_task_legacy,2022.2.4,Win32,59.97361161,42,learning,0,resources/alien1_norm.png,0.7,resources/alien2_norm.png,0.3,TRUE,TRUE,3,0.541648299,red,m,0.2619,alien2,TRUE,3,0.309620025,167,0,0.3,m,0.5067,0,281,281,281,1,0.7,0.3,0.6,0.4,FALSE,,,,,,,,,,,,,,,,,,,,,,,,,,,,,,,,,
GOSH_A14,2023-11-10_13h28.56.287,two_step_task_legacy,2022.2.4,Win32,59.97361161,42,learning,1,resources/alien3_norm.png,0.6,resources/alien4_norm.png,0.4,TRUE,TRUE,2,0.952216531,purple,m,0.2206,alien4,TRUE,3,0.621787565,167,0,0.4,m,1.0586,0,282,282,282,1,0.7,0.3,0.6,0.4,FALSE,,,,,,,,,,,,,,,,,,,,,,,,,,,,,,,,,
GOSH_A14,2023-11-10_13h28.56.287,two_step_task_legacy,2022.2.4,Win32,59.97361161,42,learning,1,resources/alien3_norm.png,0.6,resources/alien4_norm.png,0.4,TRUE,TRUE,2,0.941642477,purple,m,0.2341,alien4,TRUE,2,0.262475869,168,1,0.4,m,0.8143,0,283,283,283,1,0.7,0.3,0.6,0.4,FALSE,,,,,,,,,,,,,,,,,,,,,,,,,,,,,,,,,
GOSH_A14,2023-11-10_13h28.56.287,two_step_task_legacy,2022.2.4,Win32,59.97361161,42,learning,0,resources/alien1_norm.png,0.7,resources/alien2_norm.png,0.3,TRUE,TRUE,3,0.045574036,red,m,0.2195,alien1,TRUE,2,0.418092863,169,1,0.7,x,0.6941,0,284,284,284,1,0.7,0.3,0.6,0.4,FALSE,,,,,,,,,,,,,,,,,,,,,,,,,,,,,,,,,
GOSH_A14,2023-11-10_13h28.56.287,two_step_task_legacy,2022.2.4,Win32,59.97361161,42,learning,0,resources/alien1_norm.png,0.7,resources/alien2_norm.png,0.3,TRUE,TRUE,3,0.087555941,red,m,0.2623,alien1,TRUE,3,0.876897051,169,0,0.7,x,0.4336,0,285,285,285,1,0.7,0.3,0.6,0.4,FALSE,,,,,,,,,,,,,,,,,,,,,,,,,,,,,,,,,
GOSH_A14,2023-11-10_13h28.56.287,two_step_task_legacy,2022.2.4,Win32,59.97361161,42,learning,0,resources/alien1_norm.png,0.7,resources/alien2_norm.png,0.3,TRUE,TRUE,3,0.473520942,red,m,0.0433,alien1,TRUE,2,0.020844175,170,1,0.7,x,0.3883,0,286,286,286,1,0.7,0.3,0.6,0.4,FALSE,,,,,,,,,,,,,,,,,,,,,,,,,,,,,,,,,
GOSH_A14,2023-11-10_13h28.56.287,two_step_task_legacy,2022.2.4,Win32,59.97361161,42,learning,1,resources/alien2_norm.png,0.3,resources/alien1_norm.png,0.7,TRUE,TRUE,3,0.901709986,red,x,0.2538,alien1,TRUE,3,0.706976454,170,0,0.7,m,0.7175,0,287,287,287,1,0.7,0.3,0.6,0.4,TRUE,,,,,,,,,,,,,,,,,,,,,,,,,,,,,,,,,
GOSH_A14,2023-11-10_13h28.56.287,two_step_task_legacy,2022.2.4,Win32,59.97361161,42,learning,1,resources/alien2_norm.png,0.3,resources/alien1_norm.png,0.7,TRUE,TRUE,3,0.762685724,red,x,0.2395,alien1,TRUE,2,0.603362262,171,1,0.7,m,0.9798,0,288,288,288,1,0.7,0.3,0.6,0.4,TRUE,,,,,,,,,,,,,,,,,,,,,,,,,,,,,,,,,
GOSH_A14,2023-11-10_13h28.56.287,two_step_task_legacy,2022.2.4,Win32,59.97361161,42,learning,0,resources/alien4_norm.png,0.4,resources/alien3_norm.png,0.6,TRUE,TRUE,2,0.413895885,purple,x,0.2904,alien4,TRUE,3,0.99355734,171,0,0.4,x,0.4058,0,289,289,289,1,0.7,0.3,0.6,0.4,TRUE,,,,,,,,,,,,,,,,,,,,,,,,,,,,,,,,,
