participant,date,expName,psychopyVersion,OS,frameRate,payoff_list,phase,rare_transition,left_alien,left_probabilty,right_alien,right_probabilty,select_sp,show_alien,rocket_trans,rand_sp,planet,key_resp_exp.keys,key_resp_exp.rt,chosen_alien,select_alien,transmoney,rand_money,totalgold,trialgain,probs,key_resp_exp_alien.keys,key_resp_exp_alien.rt,loop_exp.thisRepN,loop_exp.thisTrialN,loop_exp.thisN,loop_exp.thisIndex,loop_exp.ran,p1,p2,p3,p4,flip_sides,static_probability_left,static_probability_right,key_resp_probe.keys,key_resp_probe.rt,accuracy,probe_loop.thisRepN,probe_loop.thisTrialN,probe_loop.thisN,probe_loop.thisIndex,probe_loop.ran,probe_la,probe_ra,key_resp.keys,key_resp.rt,slider.response,slider.rt,post_loop.thisRepN,post_loop.thisTrialN,post_loop.thisN,post_loop.thisIndex,post_loop.ran,text_up,pos_text_up,text_down,pos_img_left_up,left_up_img,right_up_img,left_down_img_1,left_down_img_2,right_down_img_1,right_down_img_2,size,show_slider
GOSH_A4,2023-11-09_13h19.40.129,two_step_task_legacy,2022.2.4,Win32,59.86948452,,,,,,,,,,,,,,,,,,,,,,,,,,,,,,,,,,,,,,,,,,,,,,,,,,,,,,,,,,,,,,,,,,
GOSH_A4,2023-11-09_13h19.40.129,two_step_task_legacy,2022.2.4,Win32,59.86948452,,,,,,,,,,,,,,,,,,,,,,,,,,,,,,,,,,,,,,,,,,,,,,,,,,,,,,,,,,,,,,,,,,
GOSH_A4,2023-11-09_13h19.40.129,two_step_task_legacy,2022.2.4,Win32,59.86948452,,,,,,,,,,,,,,,,,,,,,,,,,,,,,,,,,,,,,,,,,,,,,,,,,,,,,,,,,,,,,,,,,,
GOSH_A4,2023-11-09_13h19.40.129,two_step_task_legacy,2022.2.4,Win32,59.86948452,,,,,,,,,,,,,,,,,,,,,,,,,,,,,,,,,,,,,,,,,,,,,,,,,,,,,,,,,,,,,,,,,,
GOSH_A4,2023-11-09_13h19.40.129,two_step_task_legacy,2022.2.4,Win32,59.86948452,,,,,,,,,,,,,,,,,,,,,,,,,,,,,,,,,,,,,,,,,,,,,,,,,,,,,,,,,,,,,,,,,,
GOSH_A4,2023-11-09_13h19.40.129,two_step_task_legacy,2022.2.4,Win32,59.86948452,,,,,,,,,,,,,,,,,,,,,,,,,,,,,,,,,,,,,,,,,,,,,,,,,,,,,,,,,,,,,,,,,,
GOSH_A4,2023-11-09_13h19.40.129,two_step_task_legacy,2022.2.4,Win32,59.86948452,,,,,,,,,,,,,,,,,,,,,,,,,,,,,,,,,,,,,,,,,,,,,,,,,,,,,,,,,,,,,,,,,,
GOSH_A4,2023-11-09_13h19.40.129,two_step_task_legacy,2022.2.4,Win32,59.86948452,,,,,,,,,,,,,,,,,,,,,,,,,,,,,,,,,,,,,,,,,,,,,,,,,,,,,,,,,,,,,,,,,,
GOSH_A4,2023-11-09_13h19.40.129,two_step_task_legacy,2022.2.4,Win32,59.86948452,,,,,,,,,,,,,,,,,,,,,,,,,,,,,,,,,,,,,,,,,,,,,,,,,,,,,,,,,,,,,,,,,,
GOSH_A4,2023-11-09_13h19.40.129,two_step_task_legacy,2022.2.4,Win32,59.86948452,,,,,,,,,,,,,,,,,,,,,,,,,,,,,,,,,,,,,,,,,,,,,,,,,,,,,,,,,,,,,,,,,,
GOSH_A4,2023-11-09_13h19.40.129,two_step_task_legacy,2022.2.4,Win32,59.86948452,,,,,,,,,,,,,,,,,,,,,,,,,,,,,,,,,,,,,,,,,,,,,,,,,,,,,,,,,,,,,,,,,,
GOSH_A4,2023-11-09_13h19.40.129,two_step_task_legacy,2022.2.4,Win32,59.86948452,23,learning,0,resources/alien3_norm.png,0.684167385,resources/alien4_norm.png,0.574881385,TRUE,TRUE,2,0.117940164,purple,x,1.5603,alien4,TRUE,3,0.655361645,0,0,0.574881385,m,0.9358,0,0,0,0,1,0.601195094,0.412920416,0.684167385,0.574881385,FALSE,,,,,,,,,,,,,,,,,,,,,,,,,,,,,,,,,
GOSH_A4,2023-11-09_13h19.40.129,two_step_task_legacy,2022.2.4,Win32,59.86948452,23,learning,0,resources/alien3_norm.png,0.686024818,resources/alien4_norm.png,0.598570502,TRUE,TRUE,2,0.231909455,purple,x,0.3874,alien4,TRUE,2,0.579147105,1,1,0.598570502,m,1.0548,0,1,1,1,1,0.625745146,0.384635186,0.686024818,0.598570502,FALSE,,,,,,,,,,,,,,,,,,,,,,,,,,,,,,,,,
GOSH_A4,2023-11-09_13h19.40.129,two_step_task_legacy,2022.2.4,Win32,59.86948452,23,learning,0,resources/alien4_norm.png,0.638671366,resources/alien3_norm.png,0.644881976,TRUE,TRUE,2,0.308087216,purple,x,0.2595,alien3,TRUE,2,0.306704829,2,1,0.644881976,m,0.3453,0,2,2,2,1,0.607315968,0.369840214,0.644881976,0.638671366,TRUE,,,,,,,,,,,,,,,,,,,,,,,,,,,,,,,,,
GOSH_A4,2023-11-09_13h19.40.129,two_step_task_legacy,2022.2.4,Win32,59.86948452,23,learning,1,resources/alien2_norm.png,0.370949282,resources/alien1_norm.png,0.553970902,TRUE,TRUE,3,0.971171376,red,x,0.3652,alien1,TRUE,3,0.633400926,2,0,0.553970902,m,1.7953,0,3,3,3,1,0.553970902,0.370949282,0.634096222,0.581962699,TRUE,,,,,,,,,,,,,,,,,,,,,,,,,,,,,,,,,
GOSH_A4,2023-11-09_13h19.40.129,two_step_task_legacy,2022.2.4,Win32,59.86948452,23,learning,1,resources/alien1_norm.png,0.531032286,resources/alien2_norm.png,0.403833123,TRUE,TRUE,3,0.826834504,red,x,0.4313,alien1,TRUE,2,0.439944506,3,1,0.531032286,x,0.8214,0,4,4,4,1,0.531032286,0.403833123,0.641581245,0.574748429,FALSE,,,,,,,,,,,,,,,,,,,,,,,,,,,,,,,,,
GOSH_A4,2023-11-09_13h19.40.129,two_step_task_legacy,2022.2.4,Win32,59.86948452,23,learning,0,resources/alien3_norm.png,0.653289635,resources/alien4_norm.png,0.5733101,TRUE,TRUE,2,0.653341415,purple,x,0.3512,alien4,TRUE,3,0.793891801,3,0,0.5733101,m,0.9238,0,5,5,5,1,0.567657882,0.413108418,0.653289635,0.5733101,FALSE,,,,,,,,,,,,,,,,,,,,,,,,,,,,,,,,,
GOSH_A4,2023-11-09_13h19.40.129,two_step_task_legacy,2022.2.4,Win32,59.86948452,23,learning,0,resources/alien3_norm.png,0.710266348,resources/alien4_norm.png,0.526958851,TRUE,TRUE,2,0.540672529,purple,x,0.267,alien4,TRUE,2,0.446145558,4,1,0.526958851,m,1.0999,0,6,6,6,1,0.583224272,0.425080565,0.710266348,0.526958851,FALSE,,,,,,,,,,,,,,,,,,,,,,,,,,,,,,,,,
GOSH_A4,2023-11-09_13h19.40.129,two_step_task_legacy,2022.2.4,Win32,59.86948452,23,learning,1,resources/alien1_norm.png,0.611992163,resources/alien2_norm.png,0.442857993,TRUE,TRUE,3,0.991515997,red,x,0.3049,alien1,TRUE,3,0.987536126,4,0,0.611992163,x,1.1206,0,7,7,7,1,0.611992163,0.442857993,0.713974974,0.480861246,FALSE,,,,,,,,,,,,,,,,,,,,,,,,,,,,,,,,,
GOSH_A4,2023-11-09_13h19.40.129,two_step_task_legacy,2022.2.4,Win32,59.86948452,23,learning,0,resources/alien4_norm.png,0.461218259,resources/alien3_norm.png,0.7109314,TRUE,TRUE,2,0.41297083,purple,x,0.5708,alien4,TRUE,3,0.662690429,4,0,0.461218259,x,1.1056,0,8,8,8,1,0.612740558,0.431833253,0.7109314,0.461218259,TRUE,,,,,,,,,,,,,,,,,,,,,,,,,,,,,,,,,
GOSH_A4,2023-11-09_13h19.40.129,two_step_task_legacy,2022.2.4,Win32,59.86948452,23,learning,0,resources/alien3_norm.png,0.702346871,resources/alien4_norm.png,0.482120856,TRUE,TRUE,2,0.250339568,purple,x,0.2331,alien4,TRUE,3,0.644516266,4,0,0.482120856,m,0.6578,0,9,9,9,1,0.608500544,0.441677248,0.702346871,0.482120856,FALSE,,,,,,,,,,,,,,,,,,,,,,,,,,,,,,,,,
GOSH_A4,2023-11-09_13h19.40.129,two_step_task_legacy,2022.2.4,Win32,59.86948452,23,learning,1,resources/alien2_norm.png,0.482625454,resources/alien1_norm.png,0.576141425,TRUE,TRUE,3,0.972122325,red,x,0.2371,alien2,TRUE,3,0.913444246,4,0,0.482625454,x,1.4225,0,10,10,10,1,0.576141425,0.482625454,0.67633549,0.532346574,TRUE,,,,,,,,,,,,,,,,,,,,,,,,,,,,,,,,,
GOSH_A4,2023-11-09_13h19.40.129,two_step_task_legacy,2022.2.4,Win32,59.86948452,23,learning,1,resources/alien1_norm.png,0.568074544,resources/alien2_norm.png,0.493435168,TRUE,TRUE,3,0.767837743,red,x,0.2554,alien2,TRUE,3,0.717113209,4,0,0.493435168,m,0.8513,0,11,11,11,1,0.568074544,0.493435168,0.664063745,0.561189193,FALSE,,,,,,,,,,,,,,,,,,,,,,,,,,,,,,,,,
GOSH_A4,2023-11-09_13h19.40.129,two_step_task_legacy,2022.2.4,Win32,59.86948452,23,learning,1,resources/alien4_norm.png,0.548431613,resources/alien3_norm.png,0.672411387,TRUE,TRUE,2,0.992469615,purple,m,0.4007,alien4,TRUE,2,0.219096237,5,1,0.548431613,x,0.8195,0,12,12,12,1,0.580926918,0.510599306,0.672411387,0.548431613,TRUE,,,,,,,,,,,,,,,,,,,,,,,,,,,,,,,,,
GOSH_A4,2023-11-09_13h19.40.129,two_step_task_legacy,2022.2.4,Win32,59.86948452,23,learning,0,resources/alien1_norm.png,0.600410731,resources/alien2_norm.png,0.440226577,TRUE,TRUE,3,0.081209877,red,m,0.4046,alien2,TRUE,2,0.035523671,6,1,0.440226577,m,0.9223,0,13,13,13,1,0.600410731,0.440226577,0.663587653,0.549136269,FALSE,,,,,,,,,,,,,,,,,,,,,,,,,,,,,,,,,
GOSH_A4,2023-11-09_13h19.40.129,two_step_task_legacy,2022.2.4,Win32,59.86948452,23,learning,0,resources/alien2_norm.png,0.418298082,resources/alien1_norm.png,0.611788063,TRUE,TRUE,3,0.413454944,red,m,0.2502,alien2,TRUE,3,0.605289457,6,0,0.418298082,x,0.6173,0,14,14,14,1,0.611788063,0.418298082,0.666002255,0.524244528,TRUE,,,,,,,,,,,,,,,,,,,,,,,,,,,,,,,,,
GOSH_A4,2023-11-09_13h19.40.129,two_step_task_legacy,2022.2.4,Win32,59.86948452,23,learning,0,resources/alien1_norm.png,0.598923528,resources/alien2_norm.png,0.389234347,TRUE,TRUE,3,0.644007605,red,m,0.2344,alien1,TRUE,3,0.74935633,6,0,0.598923528,x,0.7868,0,15,15,15,1,0.598923528,0.389234347,0.677601938,0.531921129,FALSE,,,,,,,,,,,,,,,,,,,,,,,,,,,,,,,,,
GOSH_A4,2023-11-09_13h19.40.129,two_step_task_legacy,2022.2.4,Win32,59.86948452,23,learning,0,resources/alien2_norm.png,0.442467063,resources/alien1_norm.png,0.573752737,TRUE,TRUE,3,0.255829853,red,m,0.2645,alien2,TRUE,2,0.208553171,7,1,0.442467063,x,0.778,0,16,16,16,1,0.573752737,0.442467063,0.658528817,0.532800124,TRUE,,,,,,,,,,,,,,,,,,,,,,,,,,,,,,,,,
GOSH_A4,2023-11-09_13h19.40.129,two_step_task_legacy,2022.2.4,Win32,59.86948452,23,learning,1,resources/alien3_norm.png,0.631175471,resources/alien4_norm.png,0.552412586,TRUE,TRUE,2,0.796803087,purple,m,0.5667,alien4,TRUE,3,0.889894141,7,0,0.552412586,m,1.1673,0,17,17,17,1,0.566603312,0.428427973,0.631175471,0.552412586,FALSE,,,,,,,,,,,,,,,,,,,,,,,,,,,,,,,,,
GOSH_A4,2023-11-09_13h19.40.129,two_step_task_legacy,2022.2.4,Win32,59.86948452,23,learning,1,resources/alien3_norm.png,0.604740096,resources/alien4_norm.png,0.565590497,TRUE,TRUE,2,0.778451077,purple,m,0.2341,alien4,TRUE,2,0.256861376,8,1,0.565590497,m,0.5613,0,18,18,18,1,0.582114013,0.425646271,0.604740096,0.565590497,FALSE,,,,,,,,,,,,,,,,,,,,,,,,,,,,,,,,,
GOSH_A4,2023-11-09_13h19.40.129,two_step_task_legacy,2022.2.4,Win32,59.86948452,23,learning,1,resources/alien3_norm.png,0.572334771,resources/alien4_norm.png,0.567031065,TRUE,TRUE,2,0.93588214,purple,m,0.2347,alien4,TRUE,2,0.416733476,9,1,0.567031065,m,0.5582,0,19,19,19,1,0.561351389,0.373328893,0.572334771,0.567031065,FALSE,,,,,,,,,,,,,,,,,,,,,,,,,,,,,,,,,
GOSH_A4,2023-11-09_13h19.40.129,two_step_task_legacy,2022.2.4,Win32,59.86948452,23,learning,0,resources/alien1_norm.png,0.600913787,resources/alien2_norm.png,0.418292814,TRUE,TRUE,3,0.364027601,red,m,0.1768,alien1,TRUE,2,0.000523236,10,1,0.600913787,x,1.3101,0,20,20,20,1,0.600913787,0.418292814,0.559110428,0.54814434,FALSE,,,,,,,,,,,,,,,,,,,,,,,,,,,,,,,,,
GOSH_A4,2023-11-09_13h19.40.129,two_step_task_legacy,2022.2.4,Win32,59.86948452,23,learning,0,resources/alien1_norm.png,0.583272345,resources/alien2_norm.png,0.422500338,TRUE,TRUE,3,0.397597935,red,m,0.2056,alien1,TRUE,3,0.690557818,10,0,0.583272345,x,0.6906,0,21,21,21,1,0.583272345,0.422500338,0.568809314,0.566532625,FALSE,,,,,,,,,,,,,,,,,,,,,,,,,,,,,,,,,
GOSH_A4,2023-11-09_13h19.40.129,two_step_task_legacy,2022.2.4,Win32,59.86948452,23,learning,1,resources/alien4_norm.png,0.561719482,resources/alien3_norm.png,0.55652811,TRUE,TRUE,2,0.98776557,purple,m,0.2215,alien4,TRUE,2,0.43380572,11,1,0.561719482,x,1.2671,0,22,22,22,1,0.609961034,0.394003844,0.55652811,0.561719482,TRUE,,,,,,,,,,,,,,,,,,,,,,,,,,,,,,,,,
GOSH_A4,2023-11-09_13h19.40.129,two_step_task_legacy,2022.2.4,Win32,59.86948452,23,learning,0,resources/alien2_norm.png,0.394651748,resources/alien1_norm.png,0.590272679,TRUE,TRUE,3,0.512513049,red,m,0.3935,alien1,TRUE,2,0.478402089,12,1,0.590272679,m,1.0269,0,23,23,23,1,0.590272679,0.394651748,0.555724238,0.544931665,TRUE,,,,,,,,,,,,,,,,,,,,,,,,,,,,,,,,,
GOSH_A4,2023-11-09_13h19.40.129,two_step_task_legacy,2022.2.4,Win32,59.86948452,23,learning,0,resources/alien2_norm.png,0.431176562,resources/alien1_norm.png,0.605617399,TRUE,TRUE,3,0.236168238,red,m,0.2454,alien1,TRUE,2,0.509423824,13,1,0.605617399,m,0.8069,0,24,24,24,1,0.605617399,0.431176562,0.576639227,0.55069953,TRUE,,,,,,,,,,,,,,,,,,,,,,,,,,,,,,,,,
GOSH_A4,2023-11-09_13h19.40.129,two_step_task_legacy,2022.2.4,Win32,59.86948452,23,learning,0,resources/alien2_norm.png,0.420786543,resources/alien1_norm.png,0.613091185,TRUE,TRUE,3,0.236991109,red,m,0.3508,alien1,TRUE,2,0.011556832,14,1,0.613091185,m,0.4875,0,25,25,25,1,0.613091185,0.420786543,0.557257773,0.534624757,TRUE,,,,,,,,,,,,,,,,,,,,,,,,,,,,,,,,,
GOSH_A4,2023-11-09_13h19.40.129,two_step_task_legacy,2022.2.4,Win32,59.86948452,23,learning,0,resources/alien2_norm.png,0.450532133,resources/alien1_norm.png,0.595872609,TRUE,TRUE,3,0.681786605,red,m,0.2498,alien1,TRUE,2,0.414826247,15,1,0.595872609,m,0.4619,0,26,26,26,1,0.595872609,0.450532133,0.576094467,0.545850614,TRUE,,,,,,,,,,,,,,,,,,,,,,,,,,,,,,,,,
GOSH_A4,2023-11-09_13h19.40.129,two_step_task_legacy,2022.2.4,Win32,59.86948452,23,learning,1,resources/alien3_norm.png,0.592199407,resources/alien4_norm.png,0.511001288,TRUE,TRUE,2,0.971636919,purple,m,0.2837,alien4,TRUE,3,0.978104998,15,0,0.511001288,m,0.8324,0,27,27,27,1,0.643406653,0.477668773,0.592199407,0.511001288,FALSE,,,,,,,,,,,,,,,,,,,,,,,,,,,,,,,,,
GOSH_A4,2023-11-09_13h19.40.129,two_step_task_legacy,2022.2.4,Win32,59.86948452,23,learning,0,resources/alien1_norm.png,0.627060866,resources/alien2_norm.png,0.482589761,TRUE,TRUE,3,0.623017623,red,m,0.2336,alien1,TRUE,3,0.763060766,15,0,0.627060866,x,1.1558,0,28,28,28,1,0.627060866,0.482589761,0.634639671,0.503306501,FALSE,,,,,,,,,,,,,,,,,,,,,,,,,,,,,,,,,
GOSH_A4,2023-11-09_13h19.40.129,two_step_task_legacy,2022.2.4,Win32,59.86948452,23,learning,0,resources/alien1_norm.png,0.659503493,resources/alien2_norm.png,0.473630358,TRUE,TRUE,3,0.358277324,red,m,0.181,alien1,TRUE,2,0.443004598,16,1,0.659503493,x,0.6777,0,29,29,29,1,0.659503493,0.473630358,0.636367601,0.500905699,FALSE,,,,,,,,,,,,,,,,,,,,,,,,,,,,,,,,,
GOSH_A4,2023-11-09_13h19.40.129,two_step_task_legacy,2022.2.4,Win32,59.86948452,23,learning,1,resources/alien3_norm.png,0.637914928,resources/alien4_norm.png,0.501224844,TRUE,TRUE,2,0.81270313,purple,m,0.25,alien3,TRUE,3,0.831451709,16,0,0.637914928,x,0.7604,0,30,30,30,1,0.633289649,0.501315139,0.637914928,0.501224844,FALSE,,,,,,,,,,,,,,,,,,,,,,,,,,,,,,,,,
GOSH_A4,2023-11-09_13h19.40.129,two_step_task_legacy,2022.2.4,Win32,59.86948452,23,learning,0,resources/alien2_norm.png,0.486335384,resources/alien1_norm.png,0.601309191,TRUE,TRUE,3,0.421383433,red,m,0.234,alien1,TRUE,3,0.644262565,16,0,0.601309191,m,0.956,0,31,31,31,1,0.601309191,0.486335384,0.634843763,0.49511204,TRUE,,,,,,,,,,,,,,,,,,,,,,,,,,,,,,,,,
GOSH_A4,2023-11-09_13h19.40.129,two_step_task_legacy,2022.2.4,Win32,59.86948452,23,learning,1,resources/alien4_norm.png,0.492316248,resources/alien3_norm.png,0.625739977,TRUE,TRUE,2,0.887358832,purple,m,0.2665,alien3,TRUE,3,0.723455893,16,0,0.625739977,m,1.1849,0,32,32,32,1,0.601010443,0.467762774,0.625739977,0.492316248,TRUE,,,,,,,,,,,,,,,,,,,,,,,,,,,,,,,,,
GOSH_A4,2023-11-09_13h19.40.129,two_step_task_legacy,2022.2.4,Win32,59.86948452,23,learning,1,resources/alien3_norm.png,0.615828505,resources/alien4_norm.png,0.545653013,TRUE,TRUE,2,0.951361854,purple,m,0.1714,alien4,TRUE,3,0.996724094,16,0,0.545653013,m,1.1786,0,33,33,33,1,0.622204761,0.465440023,0.615828505,0.545653013,FALSE,,,,,,,,,,,,,,,,,,,,,,,,,,,,,,,,,
GOSH_A4,2023-11-09_13h19.40.129,two_step_task_legacy,2022.2.4,Win32,59.86948452,23,learning,0,resources/alien2_norm.png,0.493981228,resources/alien1_norm.png,0.627316779,TRUE,TRUE,3,0.543891135,red,m,0.2456,alien1,TRUE,2,0.049700555,17,1,0.627316779,m,1.2374,0,34,34,34,1,0.627316779,0.493981228,0.59000377,0.495749277,TRUE,,,,,,,,,,,,,,,,,,,,,,,,,,,,,,,,,
GOSH_A4,2023-11-09_13h19.40.129,two_step_task_legacy,2022.2.4,Win32,59.86948452,23,learning,0,resources/alien4_norm.png,0.524611694,resources/alien3_norm.png,0.553937559,TRUE,TRUE,2,0.365598065,purple,x,0.7001,alien3,TRUE,3,0.866141862,17,0,0.553937559,m,0.9904,0,35,35,35,1,0.598288248,0.477218043,0.553937559,0.524611694,TRUE,,,,,,,,,,,,,,,,,,,,,,,,,,,,,,,,,
GOSH_A4,2023-11-09_13h19.40.129,two_step_task_legacy,2022.2.4,Win32,59.86948452,23,learning,0,resources/alien3_norm.png,0.56908871,resources/alien4_norm.png,0.543066073,TRUE,TRUE,2,0.494693875,purple,x,0.255,alien4,TRUE,2,0.330199834,18,1,0.543066073,m,0.9843,0,36,36,36,1,0.614262045,0.493000476,0.56908871,0.543066073,FALSE,,,,,,,,,,,,,,,,,,,,,,,,,,,,,,,,,
GOSH_A4,2023-11-09_13h19.40.129,two_step_task_legacy,2022.2.4,Win32,59.86948452,23,learning,0,resources/alien4_norm.png,0.50431812,resources/alien3_norm.png,0.558161717,TRUE,TRUE,2,0.063753751,purple,x,0.2842,alien4,TRUE,2,0.259252432,19,1,0.50431812,x,0.6371,0,37,37,37,1,0.604854621,0.477881014,0.558161717,0.50431812,TRUE,,,,,,,,,,,,,,,,,,,,,,,,,,,,,,,,,
GOSH_A4,2023-11-09_13h19.40.129,two_step_task_legacy,2022.2.4,Win32,59.86948452,23,learning,0,resources/alien4_norm.png,0.52797049,resources/alien3_norm.png,0.530772143,TRUE,TRUE,2,0.632250184,purple,x,0.3834,alien4,TRUE,2,0.05059015,20,1,0.52797049,x,0.4849,0,38,38,38,1,0.588574075,0.534531278,0.530772143,0.52797049,TRUE,,,,,,,,,,,,,,,,,,,,,,,,,,,,,,,,,
GOSH_A4,2023-11-09_13h19.40.129,two_step_task_legacy,2022.2.4,Win32,59.86948452,23,learning,0,resources/alien3_norm.png,0.540735318,resources/alien4_norm.png,0.557222525,TRUE,TRUE,2,0.014316879,purple,x,0.3279,alien4,TRUE,2,0.157314557,21,1,0.557222525,m,0.5896,0,39,39,39,1,0.595909038,0.531132777,0.540735318,0.557222525,FALSE,,,,,,,,,,,,,,,,,,,,,,,,,,,,,,,,,
GOSH_A4,2023-11-09_13h19.40.129,two_step_task_legacy,2022.2.4,Win32,59.86948452,23,learning,0,resources/alien3_norm.png,0.494666279,resources/alien4_norm.png,0.583638711,TRUE,TRUE,2,0.554186302,purple,x,0.2948,alien4,TRUE,3,0.781301669,21,0,0.583638711,m,0.5374,0,40,40,40,1,0.574771467,0.540223528,0.494666279,0.583638711,FALSE,,,,,,,,,,,,,,,,,,,,,,,,,,,,,,,,,
GOSH_A4,2023-11-09_13h19.40.129,two_step_task_legacy,2022.2.4,Win32,59.86948452,23,learning,1,resources/alien1_norm.png,0.584272001,resources/alien2_norm.png,0.559165838,TRUE,TRUE,3,0.918117128,red,x,0.3501,alien1,TRUE,2,0.114837556,22,1,0.584272001,x,1.033,0,41,41,41,1,0.584272001,0.559165838,0.50627781,0.5945859,FALSE,,,,,,,,,,,,,,,,,,,,,,,,,,,,,,,,,
GOSH_A4,2023-11-09_13h19.40.129,two_step_task_legacy,2022.2.4,Win32,59.86948452,23,learning,0,resources/alien3_norm.png,0.516590823,resources/alien4_norm.png,0.640132819,TRUE,TRUE,2,0.21279034,purple,x,0.2144,alien4,TRUE,3,0.76274978,22,0,0.640132819,m,1.0412,0,42,42,42,1,0.630034319,0.617175123,0.516590823,0.640132819,FALSE,,,,,,,,,,,,,,,,,,,,,,,,,,,,,,,,,
GOSH_A4,2023-11-09_13h19.40.129,two_step_task_legacy,2022.2.4,Win32,59.86948452,23,learning,0,resources/alien4_norm.png,0.607580451,resources/alien3_norm.png,0.487932716,TRUE,TRUE,2,0.162472589,purple,x,0.2499,alien3,TRUE,3,0.948601615,22,0,0.487932716,m,0.9202,0,43,43,43,1,0.619075687,0.616003092,0.487932716,0.607580451,TRUE,,,,,,,,,,,,,,,,,,,,,,,,,,,,,,,,,
GOSH_A4,2023-11-09_13h19.40.129,two_step_task_legacy,2022.2.4,Win32,59.86948452,23,learning,1,resources/alien1_norm.png,0.605356515,resources/alien2_norm.png,0.582526972,TRUE,TRUE,3,0.702125002,red,x,0.1278,alien1,TRUE,3,0.817527242,22,0,0.605356515,x,0.8206,0,44,44,44,1,0.605356515,0.582526972,0.519583753,0.572653625,FALSE,,,,,,,,,,,,,,,,,,,,,,,,,,,,,,,,,
GOSH_A4,2023-11-09_13h19.40.129,two_step_task_legacy,2022.2.4,Win32,59.86948452,23,learning,0,resources/alien3_norm.png,0.511061951,resources/alien4_norm.png,0.574858948,TRUE,TRUE,2,0.312134168,purple,x,0.4841,alien4,TRUE,2,0.1023317,23,1,0.574858948,m,0.8056,0,45,45,45,1,0.557081221,0.577200294,0.511061951,0.574858948,FALSE,,,,,,,,,,,,,,,,,,,,,,,,,,,,,,,,,
GOSH_A4,2023-11-09_13h19.40.129,two_step_task_legacy,2022.2.4,Win32,59.86948452,23,learning,1,resources/alien3_norm.png,0.532871987,resources/alien4_norm.png,0.595061916,TRUE,TRUE,2,0.898334943,purple,m,0.8212,alien4,TRUE,2,0.069183461,24,1,0.595061916,m,0.656,0,46,46,46,1,0.555291304,0.598845262,0.532871987,0.595061916,FALSE,,,,,,,,,,,,,,,,,,,,,,,,,,,,,,,,,
GOSH_A4,2023-11-09_13h19.40.129,two_step_task_legacy,2022.2.4,Win32,59.86948452,23,learning,0,resources/alien1_norm.png,0.578601924,resources/alien2_norm.png,0.598532069,TRUE,TRUE,3,0.090153323,red,m,0.2566,alien2,TRUE,2,0.438876446,25,1,0.598532069,m,1.2534,0,47,47,47,1,0.578601924,0.598532069,0.529726075,0.585828111,FALSE,,,,,,,,,,,,,,,,,,,,,,,,,,,,,,,,,
GOSH_A4,2023-11-09_13h19.40.129,two_step_task_legacy,2022.2.4,Win32,59.86948452,23,learning,0,resources/alien1_norm.png,0.542249819,resources/alien2_norm.png,0.586538679,TRUE,TRUE,3,0.070349152,red,m,0.2163,alien2,TRUE,2,0.550551645,26,1,0.586538679,m,0.4589,0,48,48,48,1,0.542249819,0.586538679,0.558730333,0.573653694,FALSE,,,,,,,,,,,,,,,,,,,,,,,,,,,,,,,,,
GOSH_A4,2023-11-09_13h19.40.129,two_step_task_legacy,2022.2.4,Win32,59.86948452,23,learning,0,resources/alien1_norm.png,0.519538965,resources/alien2_norm.png,0.584343304,TRUE,TRUE,3,0.386095522,red,m,0.2225,alien2,TRUE,2,0.480001519,27,1,0.584343304,m,0.4708,0,49,49,49,1,0.519538965,0.584343304,0.622833908,0.600621292,FALSE,,,,,,,,,,,,,,,,,,,,,,,,,,,,,,,,,
GOSH_A4,2023-11-09_13h19.40.129,two_step_task_legacy,2022.2.4,Win32,59.86948452,23,learning,0,resources/alien1_norm.png,0.554572557,resources/alien2_norm.png,0.581709677,TRUE,TRUE,3,0.136641291,red,m,0.2463,alien2,TRUE,2,0.311463248,28,1,0.581709677,m,0.4463,0,50,50,50,1,0.554572557,0.581709677,0.620348506,0.607356483,FALSE,,,,,,,,,,,,,,,,,,,,,,,,,,,,,,,,,
GOSH_A4,2023-11-09_13h19.40.129,two_step_task_legacy,2022.2.4,Win32,59.86948452,23,learning,0,resources/alien1_norm.png,0.547889004,resources/alien2_norm.png,0.612718726,TRUE,TRUE,3,0.35566559,red,m,0.2332,alien2,TRUE,2,0.131177927,29,1,0.612718726,m,0.413,0,51,51,51,1,0.547889004,0.612718726,0.6031703,0.607009894,FALSE,,,,,,,,,,,,,,,,,,,,,,,,,,,,,,,,,
GOSH_A4,2023-11-09_13h19.40.129,two_step_task_legacy,2022.2.4,Win32,59.86948452,23,learning,1,resources/alien4_norm.png,0.588840226,resources/alien3_norm.png,0.557769273,TRUE,TRUE,2,0.972698631,purple,m,0.3165,alien4,TRUE,2,0.213522664,30,1,0.588840226,x,1.2339,0,52,52,52,1,0.544060582,0.595407189,0.557769273,0.588840226,TRUE,,,,,,,,,,,,,,,,,,,,,,,,,,,,,,,,,
GOSH_A4,2023-11-09_13h19.40.129,two_step_task_legacy,2022.2.4,Win32,59.86948452,23,learning,1,resources/alien4_norm.png,0.626166645,resources/alien3_norm.png,0.542082465,TRUE,TRUE,2,0.826564444,purple,m,0.2566,alien4,TRUE,2,0.034398547,31,1,0.626166645,x,1.0007,0,53,53,53,1,0.545266218,0.593072845,0.542082465,0.626166645,TRUE,,,,,,,,,,,,,,,,,,,,,,,,,,,,,,,,,
GOSH_A4,2023-11-09_13h19.40.129,two_step_task_legacy,2022.2.4,Win32,59.86948452,23,learning,0,resources/alien1_norm.png,0.533636761,resources/alien2_norm.png,0.617187035,TRUE,TRUE,3,0.103795857,red,m,0.2216,alien2,TRUE,3,0.770423751,31,0,0.617187035,m,0.6227,0,54,54,54,1,0.533636761,0.617187035,0.542691053,0.641639284,FALSE,,,,,,,,,,,,,,,,,,,,,,,,,,,,,,,,,
GOSH_A4,2023-11-09_13h19.40.129,two_step_task_legacy,2022.2.4,Win32,59.86948452,23,learning,0,resources/alien1_norm.png,0.53071874,resources/alien2_norm.png,0.642883939,TRUE,TRUE,3,0.435231291,red,m,0.2336,alien2,TRUE,3,0.984768669,31,0,0.642883939,m,0.4287,0,55,55,55,1,0.53071874,0.642883939,0.540688793,0.613630346,FALSE,,,,,,,,,,,,,,,,,,,,,,,,,,,,,,,,,
GOSH_A4,2023-11-09_13h19.40.129,two_step_task_legacy,2022.2.4,Win32,59.86948452,23,learning,1,resources/alien4_norm.png,0.604506511,resources/alien3_norm.png,0.506133513,TRUE,TRUE,2,0.937203704,purple,m,0.2379,alien4,TRUE,3,0.971253624,31,0,0.604506511,x,0.7035,0,56,56,56,1,0.508540082,0.642374716,0.506133513,0.604506511,TRUE,,,,,,,,,,,,,,,,,,,,,,,,,,,,,,,,,
GOSH_A4,2023-11-09_13h19.40.129,two_step_task_legacy,2022.2.4,Win32,59.86948452,23,learning,1,resources/alien4_norm.png,0.600516429,resources/alien3_norm.png,0.531679577,TRUE,TRUE,2,0.714796142,purple,m,0.2557,alien4,TRUE,3,0.788917724,31,0,0.600516429,x,0.6507,0,57,57,57,1,0.519337081,0.646260215,0.531679577,0.600516429,TRUE,,,,,,,,,,,,,,,,,,,,,,,,,,,,,,,,,
GOSH_A4,2023-11-09_13h19.40.129,two_step_task_legacy,2022.2.4,Win32,59.86948452,23,learning,0,resources/alien1_norm.png,0.515119314,resources/alien2_norm.png,0.644987866,TRUE,TRUE,3,0.407288085,red,m,0.2313,alien2,TRUE,2,0.135858597,32,1,0.644987866,m,0.6731,0,58,58,58,1,0.515119314,0.644987866,0.525737079,0.596579648,FALSE,,,,,,,,,,,,,,,,,,,,,,,,,,,,,,,,,
GOSH_A4,2023-11-09_13h19.40.129,two_step_task_legacy,2022.2.4,Win32,59.86948452,23,learning,1,resources/alien2_norm.png,0.621644772,resources/alien1_norm.png,0.482207563,TRUE,TRUE,3,0.822445821,red,x,0.7636,alien2,TRUE,2,0.256669962,33,1,0.621644772,x,0.9001,0,59,59,59,1,0.482207563,0.621644772,0.535111942,0.600256718,TRUE,,,,,,,,,,,,,,,,,,,,,,,,,,,,,,,,,
GOSH_A4,2023-11-09_13h19.40.129,two_step_task_legacy,2022.2.4,Win32,59.86948452,23,learning,0,resources/alien3_norm.png,0.514338736,resources/alien4_norm.png,0.607153047,TRUE,TRUE,2,0.095211452,purple,x,0.2665,alien4,TRUE,2,0.401794105,34,1,0.607153047,m,0.4716,0,60,60,60,1,0.450055305,0.66669687,0.514338736,0.607153047,FALSE,,,,,,,,,,,,,,,,,,,,,,,,,,,,,,,,,
GOSH_A4,2023-11-09_13h19.40.129,two_step_task_legacy,2022.2.4,Win32,59.86948452,23,learning,1,resources/alien1_norm.png,0.419368289,resources/alien2_norm.png,0.658101899,TRUE,TRUE,3,0.730928513,red,x,0.2874,alien2,TRUE,3,0.815255291,34,0,0.658101899,m,0.5667,0,61,61,61,1,0.419368289,0.658101899,0.471642866,0.583823796,FALSE,,,,,,,,,,,,,,,,,,,,,,,,,,,,,,,,,
GOSH_A4,2023-11-09_13h19.40.129,two_step_task_legacy,2022.2.4,Win32,59.86948452,23,learning,0,resources/alien4_norm.png,0.577391808,resources/alien3_norm.png,0.495383864,TRUE,TRUE,2,0.158676894,purple,x,0.312,alien4,TRUE,3,0.940010909,34,0,0.577391808,x,0.7389,0,62,62,62,1,0.476081837,0.679582459,0.495383864,0.577391808,TRUE,,,,,,,,,,,,,,,,,,,,,,,,,,,,,,,,,
GOSH_A4,2023-11-09_13h19.40.129,two_step_task_legacy,2022.2.4,Win32,59.86948452,23,learning,0,resources/alien4_norm.png,0.584382346,resources/alien3_norm.png,0.492482455,TRUE,TRUE,2,0.52051477,purple,x,0.2769,alien4,TRUE,2,0.336183922,35,1,0.584382346,x,0.5753,0,63,63,63,1,0.46564135,0.656019472,0.492482455,0.584382346,TRUE,,,,,,,,,,,,,,,,,,,,,,,,,,,,,,,,,
GOSH_A4,2023-11-09_13h19.40.129,two_step_task_legacy,2022.2.4,Win32,59.86948452,23,learning,0,resources/alien3_norm.png,0.473090091,resources/alien4_norm.png,0.579903099,TRUE,TRUE,2,0.159823116,purple,x,0.3271,alien4,TRUE,2,0.349858154,36,1,0.579903099,m,0.5377,0,64,64,64,1,0.477315304,0.650679566,0.473090091,0.579903099,FALSE,,,,,,,,,,,,,,,,,,,,,,,,,,,,,,,,,
GOSH_A4,2023-11-09_13h19.40.129,two_step_task_legacy,2022.2.4,Win32,59.86948452,23,learning,1,resources/alien1_norm.png,0.46552265,resources/alien2_norm.png,0.62334515,TRUE,TRUE,3,0.891836713,red,x,0.2508,alien2,TRUE,2,0.215089743,37,1,0.62334515,m,0.9036,0,65,65,65,1,0.46552265,0.62334515,0.46600528,0.57197952,FALSE,,,,,,,,,,,,,,,,,,,,,,,,,,,,,,,,,
GOSH_A4,2023-11-09_13h19.40.129,two_step_task_legacy,2022.2.4,Win32,59.86948452,23,learning,0,resources/alien4_norm.png,0.610089415,resources/alien3_norm.png,0.423812817,TRUE,TRUE,2,0.5918794,purple,x,0.0109,alien4,TRUE,3,0.672949082,37,0,0.610089415,x,0.6699,0,66,66,66,1,0.475612123,0.625851031,0.423812817,0.610089415,TRUE,,,,,,,,,,,,,,,,,,,,,,,,,,,,,,,,,
GOSH_A4,2023-11-09_13h19.40.129,two_step_task_legacy,2022.2.4,Win32,59.86948452,23,learning,1,resources/alien1_norm.png,0.488225722,resources/alien2_norm.png,0.591916813,TRUE,TRUE,3,0.97286603,red,x,0.3713,alien2,TRUE,2,0.266127237,38,1,0.591916813,m,0.6379,0,67,67,67,1,0.488225722,0.591916813,0.389156213,0.604504253,FALSE,,,,,,,,,,,,,,,,,,,,,,,,,,,,,,,,,
GOSH_A4,2023-11-09_13h19.40.129,two_step_task_legacy,2022.2.4,Win32,59.86948452,23,learning,0,resources/alien4_norm.png,0.600400303,resources/alien3_norm.png,0.426911286,TRUE,TRUE,2,0.416430216,purple,x,0.2229,alien4,TRUE,2,0.479304949,39,1,0.600400303,x,0.5809,0,68,68,68,1,0.447473516,0.566650103,0.426911286,0.600400303,TRUE,,,,,,,,,,,,,,,,,,,,,,,,,,,,,,,,,
GOSH_A4,2023-11-09_13h19.40.129,two_step_task_legacy,2022.2.4,Win32,59.86948452,23,learning,1,resources/alien2_norm.png,0.601017704,resources/alien1_norm.png,0.446833039,TRUE,TRUE,3,0.974107851,red,x,0.2006,alien2,TRUE,3,0.757046134,39,0,0.601017704,x,0.6526,0,69,69,69,1,0.446833039,0.601017704,0.419171163,0.645762646,TRUE,,,,,,,,,,,,,,,,,,,,,,,,,,,,,,,,,
GOSH_A4,2023-11-09_13h19.40.129,two_step_task_legacy,2022.2.4,Win32,59.86948452,23,learning,0,resources/alien4_norm.png,0.679798258,resources/alien3_norm.png,0.381881382,TRUE,TRUE,2,0.279429256,purple,x,0.0927,alien4,TRUE,2,0.244833317,40,1,0.679798258,x,0.6004,0,70,70,70,1,0.46229688,0.577212844,0.381881382,0.679798258,TRUE,,,,,,,,,,,,,,,,,,,,,,,,,,,,,,,,,
GOSH_A4,2023-11-09_13h19.40.129,two_step_task_legacy,2022.2.4,Win32,59.86948452,23,learning,0,resources/alien4_norm.png,0.744246282,resources/alien3_norm.png,0.372866063,TRUE,TRUE,2,0.021439014,purple,x,0.1315,alien4,TRUE,2,0.551032628,41,1,0.744246282,x,0.4607,0,71,71,71,1,0.447857256,0.585168326,0.372866063,0.744246282,TRUE,,,,,,,,,,,,,,,,,,,,,,,,,,,,,,,,,
GOSH_A4,2023-11-09_13h19.40.129,two_step_task_legacy,2022.2.4,Win32,59.86948452,23,learning,0,resources/alien4_norm.png,0.738925901,resources/alien3_norm.png,0.365658811,TRUE,TRUE,2,0.687582042,purple,x,0.219,alien4,TRUE,3,0.88834153,41,0,0.738925901,x,0.4231,0,72,72,72,1,0.469156344,0.590253845,0.365658811,0.738925901,TRUE,,,,,,,,,,,,,,,,,,,,,,,,,,,,,,,,,
GOSH_A4,2023-11-09_13h19.40.129,two_step_task_legacy,2022.2.4,Win32,59.86948452,23,learning,0,resources/alien3_norm.png,0.368495441,resources/alien4_norm.png,0.745967699,TRUE,TRUE,2,0.488327882,purple,x,0.0164,alien4,TRUE,2,0.434834235,42,1,0.745967699,m,0.4976,0,73,73,73,1,0.524386296,0.606410566,0.368495441,0.745967699,FALSE,,,,,,,,,,,,,,,,,,,,,,,,,,,,,,,,,
GOSH_A4,2023-11-09_13h19.40.129,two_step_task_legacy,2022.2.4,Win32,59.86948452,23,learning,1,resources/alien1_norm.png,0.546195851,resources/alien2_norm.png,0.610187899,TRUE,TRUE,3,0.976910342,red,x,0.3777,alien2,TRUE,3,0.711165206,42,0,0.610187899,m,0.7408,0,74,74,74,1,0.546195851,0.610187899,0.382592524,0.747056302,FALSE,,,,,,,,,,,,,,,,,,,,,,,,,,,,,,,,,
GOSH_A4,2023-11-09_13h19.40.129,two_step_task_legacy,2022.2.4,Win32,59.86948452,23,learning,0,resources/alien4_norm.png,0.727966599,resources/alien3_norm.png,0.365808589,TRUE,TRUE,2,0.477860476,purple,x,0.3172,alien4,TRUE,2,0.457920638,43,1,0.727966599,x,0.722,0,75,75,75,1,0.516674318,0.630410906,0.365808589,0.727966599,TRUE,,,,,,,,,,,,,,,,,,,,,,,,,,,,,,,,,
GOSH_A4,2023-11-09_13h19.40.129,two_step_task_legacy,2022.2.4,Win32,59.86948452,23,learning,0,resources/alien4_norm.png,0.747496672,resources/alien3_norm.png,0.376049182,TRUE,TRUE,2,0.052218915,purple,x,0.1725,alien4,TRUE,2,0.298434163,44,1,0.747496672,x,0.5752,0,76,76,76,1,0.513333865,0.600336462,0.376049182,0.747496672,TRUE,,,,,,,,,,,,,,,,,,,,,,,,,,,,,,,,,
GOSH_A4,2023-11-09_13h19.40.129,two_step_task_legacy,2022.2.4,Win32,59.86948452,23,learning,0,resources/alien3_norm.png,0.366792972,resources/alien4_norm.png,0.743468027,TRUE,TRUE,2,0.457322026,purple,x,0.0829,alien4,TRUE,2,0.68462653,45,1,0.743468027,m,0.7326,0,77,77,77,1,0.533414093,0.616695744,0.366792972,0.743468027,FALSE,,,,,,,,,,,,,,,,,,,,,,,,,,,,,,,,,
GOSH_A4,2023-11-09_13h19.40.129,two_step_task_legacy,2022.2.4,Win32,59.86948452,23,learning,0,resources/alien4_norm.png,0.729281693,resources/alien3_norm.png,0.342893528,TRUE,TRUE,2,0.478649334,purple,x,0.3995,alien4,TRUE,2,0.202303397,46,1,0.729281693,x,0.6042,0,78,78,78,1,0.522426186,0.626472856,0.342893528,0.729281693,TRUE,,,,,,,,,,,,,,,,,,,,,,,,,,,,,,,,,
GOSH_A4,2023-11-09_13h19.40.129,two_step_task_legacy,2022.2.4,Win32,59.86948452,23,learning,0,resources/alien3_norm.png,0.328275201,resources/alien4_norm.png,0.732241262,TRUE,TRUE,2,0.062193069,purple,x,0.2205,alien4,TRUE,2,0.058531785,47,1,0.732241262,m,0.5667,0,79,79,79,1,0.537512346,0.612363775,0.328275201,0.732241262,FALSE,,,,,,,,,,,,,,,,,,,,,,,,,,,,,,,,,
GOSH_A4,2023-11-09_13h19.40.129,two_step_task_legacy,2022.2.4,Win32,59.86948452,23,learning,0,resources/alien4_norm.png,0.703847115,resources/alien3_norm.png,0.339910551,TRUE,TRUE,2,0.568736859,purple,x,0.2692,alien4,TRUE,2,0.215868313,48,1,0.703847115,x,0.6041,0,80,80,80,1,0.564643748,0.646040762,0.339910551,0.703847115,TRUE,,,,,,,,,,,,,,,,,,,,,,,,,,,,,,,,,
GOSH_A4,2023-11-09_13h19.40.129,two_step_task_legacy,2022.2.4,Win32,59.86948452,23,learning,0,resources/alien3_norm.png,0.355880374,resources/alien4_norm.png,0.713459204,TRUE,TRUE,2,0.212015339,purple,x,0.1498,alien4,TRUE,2,0.318929829,49,1,0.713459204,m,0.4912,0,81,81,81,1,0.574339547,0.667820554,0.355880374,0.713459204,FALSE,,,,,,,,,,,,,,,,,,,,,,,,,,,,,,,,,
GOSH_A4,2023-11-09_13h19.40.129,two_step_task_legacy,2022.2.4,Win32,59.86948452,23,learning,1,resources/alien1_norm.png,0.55697673,resources/alien2_norm.png,0.698602971,TRUE,TRUE,3,0.960808464,red,x,0.1604,alien1,TRUE,2,0.471736176,50,1,0.55697673,x,0.9736,0,82,82,82,1,0.55697673,0.698602971,0.383992384,0.723108132,FALSE,,,,,,,,,,,,,,,,,,,,,,,,,,,,,,,,,
GOSH_A4,2023-11-09_13h19.40.129,two_step_task_legacy,2022.2.4,Win32,59.86948452,23,learning,0,resources/alien4_norm.png,0.74849031,resources/alien3_norm.png,0.388691416,TRUE,TRUE,2,0.180923419,purple,x,0.2163,alien4,TRUE,2,0.49347486,51,1,0.74849031,x,0.5504,0,83,83,83,1,0.520995768,0.688535499,0.388691416,0.74849031,TRUE,,,,,,,,,,,,,,,,,,,,,,,,,,,,,,,,,
GOSH_A4,2023-11-09_13h19.40.129,two_step_task_legacy,2022.2.4,Win32,59.86948452,23,learning,0,resources/alien3_norm.png,0.394471814,resources/alien4_norm.png,0.708470458,TRUE,TRUE,2,0.231631806,purple,x,0.2106,alien4,TRUE,2,0.435169836,52,1,0.708470458,m,0.5843,0,84,84,84,1,0.560357955,0.710364652,0.394471814,0.708470458,FALSE,,,,,,,,,,,,,,,,,,,,,,,,,,,,,,,,,
GOSH_A4,2023-11-09_13h19.40.129,two_step_task_legacy,2022.2.4,Win32,59.86948452,23,learning,1,resources/alien2_norm.png,0.694563603,resources/alien1_norm.png,0.642492048,TRUE,TRUE,3,0.948233444,red,x,0.2587,alien1,TRUE,2,0.297180989,53,1,0.642492048,m,0.46,0,85,85,85,1,0.642492048,0.694563603,0.366165455,0.701290951,TRUE,,,,,,,,,,,,,,,,,,,,,,,,,,,,,,,,,
GOSH_A4,2023-11-09_13h19.40.129,two_step_task_legacy,2022.2.4,Win32,59.86948452,23,learning,0,resources/alien4_norm.png,0.68653895,resources/alien3_norm.png,0.339851899,TRUE,TRUE,2,0.375892981,purple,x,0.2444,alien4,TRUE,2,0.498738566,54,1,0.68653895,x,0.6078,0,86,86,86,1,0.659827268,0.693119638,0.339851899,0.68653895,TRUE,,,,,,,,,,,,,,,,,,,,,,,,,,,,,,,,,
GOSH_A4,2023-11-09_13h19.40.129,two_step_task_legacy,2022.2.4,Win32,59.86948452,23,learning,0,resources/alien3_norm.png,0.344034175,resources/alien4_norm.png,0.714890726,TRUE,TRUE,2,0.652709451,purple,x,0.227,alien4,TRUE,2,0.682311709,55,1,0.714890726,m,0.6124,0,87,87,87,1,0.662335746,0.693358738,0.344034175,0.714890726,FALSE,,,,,,,,,,,,,,,,,,,,,,,,,,,,,,,,,
GOSH_A4,2023-11-09_13h19.40.129,two_step_task_legacy,2022.2.4,Win32,59.86948452,23,learning,0,resources/alien3_norm.png,0.317764846,resources/alien4_norm.png,0.686498284,TRUE,TRUE,2,0.478117997,purple,x,0.1831,alien4,TRUE,3,0.767311938,55,0,0.686498284,m,0.5677,0,88,88,88,1,0.654953403,0.711283868,0.317764846,0.686498284,FALSE,,,,,,,,,,,,,,,,,,,,,,,,,,,,,,,,,
GOSH_A4,2023-11-09_13h19.40.129,two_step_task_legacy,2022.2.4,Win32,59.86948452,23,learning,0,resources/alien3_norm.png,0.351001491,resources/alien4_norm.png,0.679595828,TRUE,TRUE,2,0.016332355,purple,x,0.207,alien4,TRUE,2,0.175002566,56,1,0.679595828,m,0.4492,0,89,89,89,1,0.616516022,0.696475853,0.351001491,0.679595828,FALSE,,,,,,,,,,,,,,,,,,,,,,,,,,,,,,,,,
GOSH_A4,2023-11-09_13h19.40.129,two_step_task_legacy,2022.2.4,Win32,59.86948452,23,learning,1,resources/alien2_norm.png,0.712975203,resources/alien1_norm.png,0.617393134,TRUE,TRUE,3,0.800566422,red,x,0.1981,alien1,TRUE,2,0.051777831,57,1,0.617393134,m,0.966,0,90,90,90,1,0.617393134,0.712975203,0.333950803,0.65457047,TRUE,,,,,,,,,,,,,,,,,,,,,,,,,,,,,,,,,
GOSH_A4,2023-11-09_13h19.40.129,two_step_task_legacy,2022.2.4,Win32,59.86948452,23,learning,0,resources/alien3_norm.png,0.333164568,resources/alien4_norm.png,0.68681226,TRUE,TRUE,2,0.100954991,purple,x,0.1664,alien4,TRUE,2,0.675917593,58,1,0.68681226,m,0.5213,0,91,91,91,1,0.605248488,0.727979256,0.333164568,0.68681226,FALSE,,,,,,,,,,,,,,,,,,,,,,,,,,,,,,,,,
GOSH_A4,2023-11-09_13h19.40.129,two_step_task_legacy,2022.2.4,Win32,59.86948452,23,learning,0,resources/alien4_norm.png,0.695375305,resources/alien3_norm.png,0.335050717,TRUE,TRUE,2,0.03641948,purple,x,0.0497,alien4,TRUE,2,0.615103867,59,1,0.695375305,x,0.5092,0,92,92,92,1,0.597920866,0.710049944,0.335050717,0.695375305,TRUE,,,,,,,,,,,,,,,,,,,,,,,,,,,,,,,,,
GOSH_A4,2023-11-09_13h19.40.129,two_step_task_legacy,2022.2.4,Win32,59.86948452,23,learning,0,resources/alien4_norm.png,0.705704451,resources/alien3_norm.png,0.361676132,TRUE,TRUE,2,0.396324509,purple,x,0.5166,alien4,TRUE,2,0.233240815,60,1,0.705704451,x,0.6026,0,93,93,93,1,0.570087701,0.695892733,0.361676132,0.705704451,TRUE,,,,,,,,,,,,,,,,,,,,,,,,,,,,,,,,,
GOSH_A4,2023-11-09_13h19.40.129,two_step_task_legacy,2022.2.4,Win32,59.86948452,23,learning,0,resources/alien3_norm.png,0.335318237,resources/alien4_norm.png,0.711789496,TRUE,TRUE,2,0.436098241,purple,x,0.3165,alien4,TRUE,3,0.912587731,60,0,0.711789496,m,0.5093,0,94,94,94,1,0.529720036,0.708120691,0.335318237,0.711789496,FALSE,,,,,,,,,,,,,,,,,,,,,,,,,,,,,,,,,
GOSH_A4,2023-11-09_13h19.40.129,two_step_task_legacy,2022.2.4,Win32,59.86948452,23,learning,0,resources/alien4_norm.png,0.682412233,resources/alien3_norm.png,0.398221116,TRUE,TRUE,2,0.224220603,purple,x,0.2697,alien4,TRUE,3,0.744769982,60,0,0.682412233,x,0.5542,0,95,95,95,1,0.47635657,0.721500672,0.398221116,0.682412233,TRUE,,,,,,,,,,,,,,,,,,,,,,,,,,,,,,,,,
GOSH_A4,2023-11-09_13h19.40.129,two_step_task_legacy,2022.2.4,Win32,59.86948452,23,learning,0,resources/alien3_norm.png,0.401364405,resources/alien4_norm.png,0.649304922,TRUE,TRUE,2,0.162728571,purple,x,0.2312,alien3,TRUE,3,0.804558393,60,0,0.401364405,x,0.6425,0,96,96,96,1,0.466179965,0.715414355,0.401364405,0.649304922,FALSE,,,,,,,,,,,,,,,,,,,,,,,,,,,,,,,,,
GOSH_A4,2023-11-09_13h19.40.129,two_step_task_legacy,2022.2.4,Win32,59.86948452,23,learning,0,resources/alien3_norm.png,0.396988401,resources/alien4_norm.png,0.645948713,TRUE,TRUE,2,0.039414517,purple,x,0.2543,alien3,TRUE,3,0.64020388,60,0,0.396988401,x,0.7127,0,97,97,97,1,0.467126539,0.723595882,0.396988401,0.645948713,FALSE,,,,,,,,,,,,,,,,,,,,,,,,,,,,,,,,,
GOSH_A4,2023-11-09_13h19.40.129,two_step_task_legacy,2022.2.4,Win32,59.86948452,23,learning,0,resources/alien3_norm.png,0.433219326,resources/alien4_norm.png,0.668586832,TRUE,TRUE,2,0.232131788,purple,x,0.0713,alien3,TRUE,3,0.577863818,60,0,0.433219326,x,0.7206,0,98,98,98,1,0.439790307,0.696269276,0.433219326,0.668586832,FALSE,,,,,,,,,,,,,,,,,,,,,,,,,,,,,,,,,
GOSH_A4,2023-11-09_13h19.40.129,two_step_task_legacy,2022.2.4,Win32,59.86948452,23,learning,0,resources/alien4_norm.png,0.680060197,resources/alien3_norm.png,0.442086132,TRUE,TRUE,2,0.310587514,purple,x,0.0732,alien4,TRUE,2,0.552239933,61,1,0.680060197,x,0.6064,0,99,99,99,1,0.464800643,0.659724849,0.442086132,0.680060197,TRUE,,,,,,,,,,,,,,,,,,,,,,,,,,,,,,,,,
GOSH_A4,2023-11-09_13h19.40.129,two_step_task_legacy,2022.2.4,Win32,59.86948452,23,learning,0,resources/alien4_norm.png,0.688821162,resources/alien3_norm.png,0.432642845,TRUE,TRUE,2,0.53376702,purple,x,0.3505,alien4,TRUE,3,0.923451652,61,0,0.688821162,x,0.425,0,100,100,100,1,0.453655036,0.648409952,0.432642845,0.688821162,TRUE,,,,,,,,,,,,,,,,,,,,,,,,,,,,,,,,,
GOSH_A4,2023-11-09_13h19.40.129,two_step_task_legacy,2022.2.4,Win32,59.86948452,23,learning,1,resources/alien1_norm.png,0.480154937,resources/alien2_norm.png,0.66099901,TRUE,TRUE,3,0.70259295,red,x,0.0005,alien1,TRUE,3,0.860104741,61,0,0.480154937,x,0.8504,0,101,101,101,1,0.480154937,0.66099901,0.452743872,0.655063209,FALSE,,,,,,,,,,,,,,,,,,,,,,,,,,,,,,,,,
GOSH_A4,2023-11-09_13h19.40.129,two_step_task_legacy,2022.2.4,Win32,59.86948452,23,learning,0,resources/alien3_norm.png,0.456887081,resources/alien4_norm.png,0.675596743,TRUE,TRUE,2,0.123792462,purple,x,0.0551,alien4,TRUE,2,0.386393145,62,1,0.675596743,m,1.3772,0,102,102,102,1,0.435064291,0.686802619,0.456887081,0.675596743,FALSE,,,,,,,,,,,,,,,,,,,,,,,,,,,,,,,,,
GOSH_A4,2023-11-09_13h19.40.129,two_step_task_legacy,2022.2.4,Win32,59.86948452,23,learning,1,resources/alien2_norm.png,0.689975019,resources/alien1_norm.png,0.4274682,TRUE,TRUE,3,0.913776705,red,x,0.3603,alien1,TRUE,3,0.859401505,62,0,0.4274682,m,0.8536,0,103,103,103,1,0.4274682,0.689975019,0.437649181,0.728894923,TRUE,,,,,,,,,,,,,,,,,,,,,,,,,,,,,,,,,
GOSH_A4,2023-11-09_13h19.40.129,two_step_task_legacy,2022.2.4,Win32,59.86948452,23,learning,0,resources/alien1_norm.png,0.394205489,resources/alien2_norm.png,0.723807258,TRUE,TRUE,3,0.246686821,red,m,0.3044,alien1,TRUE,3,0.489443376,62,0,0.394205489,x,0.6509,0,104,104,104,1,0.394205489,0.723807258,0.448066099,0.744590341,FALSE,,,,,,,,,,,,,,,,,,,,,,,,,,,,,,,,,
GOSH_A4,2023-11-09_13h19.40.129,two_step_task_legacy,2022.2.4,Win32,59.86948452,23,learning,0,resources/alien2_norm.png,0.742093466,resources/alien1_norm.png,0.37371153,TRUE,TRUE,3,0.105939192,red,m,0.5406,alien1,TRUE,2,0.106193839,63,1,0.37371153,m,0.6355,0,105,105,105,1,0.37371153,0.742093466,0.485443502,0.723819794,TRUE,,,,,,,,,,,,,,,,,,,,,,,,,,,,,,,,,
GOSH_A4,2023-11-09_13h19.40.129,two_step_task_legacy,2022.2.4,Win32,59.86948452,23,learning,1,resources/alien4_norm.png,0.67031434,resources/alien3_norm.png,0.478530119,TRUE,TRUE,2,0.874851093,purple,m,0.2895,alien4,TRUE,2,0.522815496,64,1,0.67031434,x,1.0769,0,106,106,106,1,0.349275118,0.734634343,0.478530119,0.67031434,TRUE,,,,,,,,,,,,,,,,,,,,,,,,,,,,,,,,,
GOSH_A4,2023-11-09_13h19.40.129,two_step_task_legacy,2022.2.4,Win32,59.86948452,23,learning,0,resources/alien2_norm.png,0.718841441,resources/alien1_norm.png,0.35021253,TRUE,TRUE,3,0.128418145,red,m,0.2293,alien1,TRUE,3,0.783662609,64,0,0.35021253,m,0.6769,0,107,107,107,1,0.35021253,0.718841441,0.495373807,0.709673268,TRUE,,,,,,,,,,,,,,,,,,,,,,,,,,,,,,,,,
GOSH_A4,2023-11-09_13h19.40.129,two_step_task_legacy,2022.2.4,Win32,59.86948452,23,learning,0,resources/alien2_norm.png,0.676963284,resources/alien1_norm.png,0.337348022,TRUE,TRUE,3,0.184448216,red,m,0.3828,alien1,TRUE,3,0.795496484,64,0,0.337348022,m,0.4361,0,108,108,108,1,0.337348022,0.676963284,0.450735795,0.731898862,TRUE,,,,,,,,,,,,,,,,,,,,,,,,,,,,,,,,,
GOSH_A4,2023-11-09_13h19.40.129,two_step_task_legacy,2022.2.4,Win32,59.86948452,23,learning,0,resources/alien2_norm.png,0.662157072,resources/alien1_norm.png,0.322911322,TRUE,TRUE,3,0.650170715,red,m,0.2847,alien2,TRUE,2,0.24782888,65,1,0.662157072,x,0.5294,0,109,109,109,1,0.322911322,0.662157072,0.480315234,0.74430369,TRUE,,,,,,,,,,,,,,,,,,,,,,,,,,,,,,,,,
GOSH_A4,2023-11-09_13h19.40.129,two_step_task_legacy,2022.2.4,Win32,59.86948452,23,learning,0,resources/alien2_norm.png,0.729054729,resources/alien1_norm.png,0.323042006,TRUE,TRUE,3,0.50778557,red,m,0.1978,alien2,TRUE,3,0.947742498,65,0,0.729054729,x,0.4095,0,110,110,110,1,0.323042006,0.729054729,0.477745384,0.7400153,TRUE,,,,,,,,,,,,,,,,,,,,,,,,,,,,,,,,,
GOSH_A4,2023-11-09_13h19.40.129,two_step_task_legacy,2022.2.4,Win32,59.86948452,23,learning,0,resources/alien1_norm.png,0.346977723,resources/alien2_norm.png,0.717049686,TRUE,TRUE,3,0.663492305,red,m,0.2249,alien2,TRUE,2,0.343334204,66,1,0.717049686,m,0.6029,0,111,111,111,1,0.346977723,0.717049686,0.502964312,0.740528536,FALSE,,,,,,,,,,,,,,,,,,,,,,,,,,,,,,,,,
GOSH_A4,2023-11-09_13h19.40.129,two_step_task_legacy,2022.2.4,Win32,59.86948452,23,learning,0,resources/alien2_norm.png,0.710505866,resources/alien1_norm.png,0.332641057,TRUE,TRUE,3,0.385376407,red,m,0.2144,alien2,TRUE,3,0.802279469,66,0,0.710505866,x,0.4384,0,112,112,112,1,0.332641057,0.710505866,0.560076847,0.746181252,TRUE,,,,,,,,,,,,,,,,,,,,,,,,,,,,,,,,,
GOSH_A4,2023-11-09_13h19.40.129,two_step_task_legacy,2022.2.4,Win32,59.86948452,23,learning,1,resources/alien3_norm.png,0.551953466,resources/alien4_norm.png,0.737084193,TRUE,TRUE,2,0.769818713,purple,m,0.2371,alien4,TRUE,2,0.733314002,67,1,0.737084193,m,1.9192,0,113,113,113,1,0.329582244,0.713556046,0.551953466,0.737084193,FALSE,,,,,,,,,,,,,,,,,,,,,,,,,,,,,,,,,
GOSH_A4,2023-11-09_13h19.40.129,two_step_task_legacy,2022.2.4,Win32,59.86948452,23,learning,1,resources/alien3_norm.png,0.54581186,resources/alien4_norm.png,0.722210778,TRUE,TRUE,2,0.737651916,purple,m,0.2406,alien4,TRUE,2,0.380518365,68,1,0.722210778,m,0.6629,0,114,114,114,1,0.300863762,0.698255739,0.54581186,0.722210778,FALSE,,,,,,,,,,,,,,,,,,,,,,,,,,,,,,,,,
GOSH_A4,2023-11-09_13h19.40.129,two_step_task_legacy,2022.2.4,Win32,59.86948452,23,learning,1,resources/alien4_norm.png,0.744852234,resources/alien3_norm.png,0.527422928,TRUE,TRUE,2,0.932976866,purple,m,0.0334,alien4,TRUE,3,0.9215142,68,0,0.744852234,x,0.4506,0,115,115,115,1,0.335585272,0.683609207,0.527422928,0.744852234,TRUE,,,,,,,,,,,,,,,,,,,,,,,,,,,,,,,,,
GOSH_A4,2023-11-09_13h19.40.129,two_step_task_legacy,2022.2.4,Win32,59.86948452,23,learning,1,resources/alien4_norm.png,0.710357088,resources/alien3_norm.png,0.529277885,TRUE,TRUE,2,0.967955702,purple,m,0.186,alien4,TRUE,2,0.603462759,69,1,0.710357088,x,0.4175,0,116,116,116,1,0.358671417,0.690248802,0.529277885,0.710357088,TRUE,,,,,,,,,,,,,,,,,,,,,,,,,,,,,,,,,
GOSH_A4,2023-11-09_13h19.40.129,two_step_task_legacy,2022.2.4,Win32,59.86948452,23,learning,0,resources/alien1_norm.png,0.395365799,resources/alien2_norm.png,0.718538292,TRUE,TRUE,3,0.543507445,red,m,0.1561,alien2,TRUE,2,0.588048521,70,1,0.718538292,m,0.7287,0,117,117,117,1,0.395365799,0.718538292,0.547665382,0.724019431,FALSE,,,,,,,,,,,,,,,,,,,,,,,,,,,,,,,,,
GOSH_A4,2023-11-09_13h19.40.129,two_step_task_legacy,2022.2.4,Win32,59.86948452,23,learning,0,resources/alien2_norm.png,0.721594268,resources/alien1_norm.png,0.384016558,TRUE,TRUE,3,0.672779762,red,m,0.2094,alien2,TRUE,3,0.91441951,70,0,0.721594268,x,0.4657,0,118,118,118,1,0.384016558,0.721594268,0.542102089,0.74235091,TRUE,,,,,,,,,,,,,,,,,,,,,,,,,,,,,,,,,
GOSH_A4,2023-11-09_13h19.40.129,two_step_task_legacy,2022.2.4,Win32,59.86948452,23,learning,1,resources/alien4_norm.png,0.742572012,resources/alien3_norm.png,0.527099802,TRUE,TRUE,2,0.754995409,purple,m,0.2205,alien4,TRUE,2,0.465072079,71,1,0.742572012,x,0.6602,0,119,119,119,1,0.379194304,0.706850908,0.527099802,0.742572012,TRUE,,,,,,,,,,,,,,,,,,,,,,,,,,,,,,,,,
GOSH_A4,2023-11-09_13h19.40.129,two_step_task_legacy,2022.2.4,Win32,59.86948452,23,learning,1,resources/alien3_norm.png,0.497453415,resources/alien4_norm.png,0.747849489,TRUE,TRUE,2,0.766013795,purple,m,0.1751,alien4,TRUE,3,0.759469204,71,0,0.747849489,m,1.0711,0,120,120,120,1,0.311589413,0.742746316,0.497453415,0.747849489,FALSE,,,,,,,,,,,,,,,,,,,,,,,,,,,,,,,,,
GOSH_A4,2023-11-09_13h19.40.129,two_step_task_legacy,2022.2.4,Win32,59.86948452,23,learning,0,resources/alien3_norm.png,0.493636211,resources/alien4_norm.png,0.732948846,TRUE,TRUE,2,0.61954565,purple,x,1.0728,alien3,TRUE,2,0.275217188,72,1,0.493636211,x,1.0942,0,121,121,121,1,0.288613638,0.734331013,0.493636211,0.732948846,FALSE,,,,,,,,,,,,,,,,,,,,,,,,,,,,,,,,,
GOSH_A4,2023-11-09_13h19.40.129,two_step_task_legacy,2022.2.4,Win32,59.86948452,23,learning,1,resources/alien2_norm.png,0.735030185,resources/alien1_norm.png,0.327163232,TRUE,TRUE,3,0.772365345,red,x,0.4,alien1,TRUE,3,0.812815824,72,0,0.327163232,m,1.3735,0,122,122,122,1,0.327163232,0.735030185,0.458718952,0.712748711,TRUE,,,,,,,,,,,,,,,,,,,,,,,,,,,,,,,,,
GOSH_A4,2023-11-09_13h19.40.129,two_step_task_legacy,2022.2.4,Win32,59.86948452,23,learning,1,resources/alien1_norm.png,0.325553926,resources/alien2_norm.png,0.735188606,TRUE,TRUE,3,0.878743763,red,x,0.3708,alien2,TRUE,3,0.879488566,72,0,0.735188606,m,0.7677,0,123,123,123,1,0.325553926,0.735188606,0.414123906,0.707920788,FALSE,,,,,,,,,,,,,,,,,,,,,,,,,,,,,,,,,
GOSH_A4,2023-11-09_13h19.40.129,two_step_task_legacy,2022.2.4,Win32,59.86948452,23,learning,0,resources/alien3_norm.png,0.358787311,resources/alien4_norm.png,0.719523144,TRUE,TRUE,2,0.343323986,purple,x,0.517,alien3,TRUE,3,0.92794065,72,0,0.358787311,x,1.3323,0,124,124,124,1,0.332284924,0.728011457,0.358787311,0.719523144,FALSE,,,,,,,,,,,,,,,,,,,,,,,,,,,,,,,,,
GOSH_A4,2023-11-09_13h19.40.129,two_step_task_legacy,2022.2.4,Win32,59.86948452,23,learning,0,resources/alien3_norm.png,0.400002364,resources/alien4_norm.png,0.736399527,TRUE,TRUE,2,0.662795911,purple,x,1.0962,alien3,TRUE,3,0.462108397,72,0,0.400002364,x,1.1839,0,125,125,125,1,0.326093405,0.695840729,0.400002364,0.736399527,FALSE,,,,,,,,,,,,,,,,,,,,,,,,,,,,,,,,,
GOSH_A4,2023-11-09_13h19.40.129,two_step_task_legacy,2022.2.4,Win32,59.86948452,23,learning,1,resources/alien2_norm.png,0.660568372,resources/alien1_norm.png,0.323930204,TRUE,TRUE,3,0.916847611,red,x,0.5207,alien1,TRUE,3,0.403251288,72,0,0.323930204,m,1.0855,0,126,126,126,1,0.323930204,0.660568372,0.427141787,0.734764761,TRUE,,,,,,,,,,,,,,,,,,,,,,,,,,,,,,,,,
GOSH_A4,2023-11-09_13h19.40.129,two_step_task_legacy,2022.2.4,Win32,59.86948452,23,learning,1,resources/alien3_norm.png,0.427069701,resources/alien4_norm.png,0.72143708,TRUE,TRUE,2,0.786138567,purple,m,0.3068,alien4,TRUE,2,0.598240521,73,1,0.72143708,m,1.1778,0,127,127,127,1,0.340229983,0.647692248,0.427069701,0.72143708,FALSE,,,,,,,,,,,,,,,,,,,,,,,,,,,,,,,,,
GOSH_A4,2023-11-09_13h19.40.129,two_step_task_legacy,2022.2.4,Win32,59.86948452,23,learning,0,resources/alien1_norm.png,0.338813549,resources/alien2_norm.png,0.630816083,TRUE,TRUE,3,0.293415368,red,m,0.661,alien2,TRUE,2,0.368888421,74,1,0.630816083,m,1.2169,0,128,128,128,1,0.338813549,0.630816083,0.40499619,0.744385778,FALSE,,,,,,,,,,,,,,,,,,,,,,,,,,,,,,,,,
GOSH_A4,2023-11-09_13h19.40.129,two_step_task_legacy,2022.2.4,Win32,59.86948452,23,learning,0,resources/alien2_norm.png,0.661989018,resources/alien1_norm.png,0.336434737,TRUE,TRUE,3,0.146997475,red,m,0.1666,alien2,TRUE,3,0.682694773,74,0,0.661989018,x,0.6069,0,129,129,129,1,0.336434737,0.661989018,0.444389232,0.724357321,TRUE,,,,,,,,,,,,,,,,,,,,,,,,,,,,,,,,,
GOSH_A4,2023-11-09_13h19.40.129,two_step_task_legacy,2022.2.4,Win32,59.86948452,23,learning,0,resources/alien2_norm.png,0.672971781,resources/alien1_norm.png,0.290559274,TRUE,TRUE,3,0.265237902,red,m,0.172,alien2,TRUE,2,0.279439529,75,1,0.672971781,x,0.4451,0,130,130,130,1,0.290559274,0.672971781,0.428715926,0.730204744,TRUE,,,,,,,,,,,,,,,,,,,,,,,,,,,,,,,,,
GOSH_A4,2023-11-09_13h19.40.129,two_step_task_legacy,2022.2.4,Win32,59.86948452,23,learning,1,resources/alien3_norm.png,0.426712563,resources/alien4_norm.png,0.736924708,TRUE,TRUE,2,0.749426095,purple,m,0.1648,alien4,TRUE,2,0.427188943,76,1,0.736924708,m,0.6502,0,131,131,131,1,0.316122369,0.620277314,0.426712563,0.736924708,FALSE,,,,,,,,,,,,,,,,,,,,,,,,,,,,,,,,,
GOSH_A4,2023-11-09_13h19.40.129,two_step_task_legacy,2022.2.4,Win32,59.86948452,23,learning,0,resources/alien2_norm.png,0.634556363,resources/alien1_norm.png,0.351537647,TRUE,TRUE,3,0.687402545,red,m,0.0173,alien2,TRUE,2,0.098117215,77,1,0.634556363,x,0.6774,0,132,132,132,1,0.351537647,0.634556363,0.428806971,0.745455893,TRUE,,,,,,,,,,,,,,,,,,,,,,,,,,,,,,,,,
GOSH_A4,2023-11-09_13h19.40.129,two_step_task_legacy,2022.2.4,Win32,59.86948452,23,learning,0,resources/alien1_norm.png,0.36337083,resources/alien2_norm.png,0.630455363,TRUE,TRUE,3,0.530905031,red,m,0.1999,alien2,TRUE,3,0.870903879,77,0,0.630455363,m,0.5086,0,133,133,133,1,0.36337083,0.630455363,0.393697106,0.746235282,FALSE,,,,,,,,,,,,,,,,,,,,,,,,,,,,,,,,,
GOSH_A4,2023-11-09_13h19.40.129,two_step_task_legacy,2022.2.4,Win32,59.86948452,23,learning,0,resources/alien2_norm.png,0.629464294,resources/alien1_norm.png,0.391533394,TRUE,TRUE,3,0.68202829,red,m,0.1942,alien2,TRUE,2,0.320431725,78,1,0.629464294,x,0.4322,0,134,134,134,1,0.391533394,0.629464294,0.40193756,0.744542488,TRUE,,,,,,,,,,,,,,,,,,,,,,,,,,,,,,,,,
GOSH_A4,2023-11-09_13h19.40.129,two_step_task_legacy,2022.2.4,Win32,59.86948452,23,learning,0,resources/alien2_norm.png,0.638245617,resources/alien1_norm.png,0.369719776,TRUE,TRUE,3,0.276091543,red,m,0.2198,alien2,TRUE,2,0.003802428,79,1,0.638245617,x,0.4427,0,135,135,135,1,0.369719776,0.638245617,0.393998803,0.715176093,TRUE,,,,,,,,,,,,,,,,,,,,,,,,,,,,,,,,,
GOSH_A4,2023-11-09_13h19.40.129,two_step_task_legacy,2022.2.4,Win32,59.86948452,23,learning,0,resources/alien1_norm.png,0.366198559,resources/alien2_norm.png,0.649511756,TRUE,TRUE,3,0.389684933,red,m,0.2334,alien2,TRUE,3,0.739811882,79,0,0.649511756,m,0.5491,0,136,136,136,1,0.366198559,0.649511756,0.413754202,0.707095008,FALSE,,,,,,,,,,,,,,,,,,,,,,,,,,,,,,,,,
GOSH_A4,2023-11-09_13h19.40.129,two_step_task_legacy,2022.2.4,Win32,59.86948452,23,learning,0,resources/alien1_norm.png,0.382888211,resources/alien2_norm.png,0.652072629,TRUE,TRUE,3,0.181440227,red,m,0.2478,alien2,TRUE,2,0.527885804,80,1,0.652072629,m,0.4089,0,137,137,137,1,0.382888211,0.652072629,0.397718097,0.712484856,FALSE,,,,,,,,,,,,,,,,,,,,,,,,,,,,,,,,,
GOSH_A4,2023-11-09_13h19.40.129,two_step_task_legacy,2022.2.4,Win32,59.86948452,23,learning,0,resources/alien2_norm.png,0.668249043,resources/alien1_norm.png,0.343581066,TRUE,TRUE,3,0.210665418,red,m,0.2046,alien2,TRUE,2,0.65831126,81,1,0.668249043,x,0.3487,0,138,138,138,1,0.343581066,0.668249043,0.403132479,0.693717942,TRUE,,,,,,,,,,,,,,,,,,,,,,,,,,,,,,,,,
GOSH_A4,2023-11-09_13h19.40.129,two_step_task_legacy,2022.2.4,Win32,59.86948452,23,learning,0,resources/alien1_norm.png,0.363838317,resources/alien2_norm.png,0.672524194,TRUE,TRUE,3,0.258071169,red,m,0.2374,alien2,TRUE,3,0.677732024,81,0,0.672524194,m,0.4212,0,139,139,139,1,0.363838317,0.672524194,0.435461559,0.688514127,FALSE,,,,,,,,,,,,,,,,,,,,,,,,,,,,,,,,,
GOSH_A4,2023-11-09_13h19.40.129,two_step_task_legacy,2022.2.4,Win32,59.86948452,23,learning,0,resources/alien2_norm.png,0.710972025,resources/alien1_norm.png,0.379344852,TRUE,TRUE,3,0.697265907,red,m,0.2341,alien2,TRUE,2,0.419448549,82,1,0.710972025,x,0.454,0,140,140,140,1,0.379344852,0.710972025,0.439845091,0.693632034,TRUE,,,,,,,,,,,,,,,,,,,,,,,,,,,,,,,,,
GOSH_A4,2023-11-09_13h19.40.129,two_step_task_legacy,2022.2.4,Win32,59.86948452,23,learning,0,resources/alien1_norm.png,0.373374152,resources/alien2_norm.png,0.729873496,TRUE,TRUE,3,0.661149197,red,m,0.5059,alien2,TRUE,2,0.514969737,83,1,0.729873496,m,0.5121,0,141,141,141,1,0.373374152,0.729873496,0.431317014,0.69214813,FALSE,,,,,,,,,,,,,,,,,,,,,,,,,,,,,,,,,
GOSH_A4,2023-11-09_13h19.40.129,two_step_task_legacy,2022.2.4,Win32,59.86948452,23,learning,1,resources/alien4_norm.png,0.674123188,resources/alien3_norm.png,0.452030427,TRUE,TRUE,2,0.726187536,purple,m,0.2333,alien4,TRUE,2,0.154492631,84,1,0.674123188,x,0.6792,0,142,142,142,1,0.390669051,0.716383606,0.452030427,0.674123188,TRUE,,,,,,,,,,,,,,,,,,,,,,,,,,,,,,,,,
GOSH_A4,2023-11-09_13h19.40.129,two_step_task_legacy,2022.2.4,Win32,59.86948452,23,learning,1,resources/alien4_norm.png,0.639333921,resources/alien3_norm.png,0.442360919,TRUE,TRUE,2,0.744848863,purple,m,0.2257,alien4,TRUE,3,0.746657866,84,0,0.639333921,x,0.4216,0,143,143,143,1,0.339477736,0.744969912,0.442360919,0.639333921,TRUE,,,,,,,,,,,,,,,,,,,,,,,,,,,,,,,,,
GOSH_A4,2023-11-09_13h19.40.129,two_step_task_legacy,2022.2.4,Win32,59.86948452,23,learning,0,resources/alien2_norm.png,0.710844956,resources/alien1_norm.png,0.317803938,TRUE,TRUE,3,0.383634733,red,m,0.1983,alien2,TRUE,3,0.751418366,84,0,0.710844956,x,0.5923,0,144,144,144,1,0.317803938,0.710844956,0.42051828,0.612593584,TRUE,,,,,,,,,,,,,,,,,,,,,,,,,,,,,,,,,
GOSH_A4,2023-11-09_13h19.40.129,two_step_task_legacy,2022.2.4,Win32,59.86948452,23,learning,0,resources/alien2_norm.png,0.746481624,resources/alien1_norm.png,0.311104109,TRUE,TRUE,3,0.217282723,red,m,0.0005,alien2,TRUE,2,0.148060658,85,1,0.746481624,x,0.4679,0,145,145,145,1,0.311104109,0.746481624,0.446044137,0.635215037,TRUE,,,,,,,,,,,,,,,,,,,,,,,,,,,,,,,,,
GOSH_A4,2023-11-09_13h19.40.129,two_step_task_legacy,2022.2.4,Win32,59.86948452,23,learning,0,resources/alien1_norm.png,0.322435636,resources/alien2_norm.png,0.748817246,TRUE,TRUE,3,0.508587904,red,m,0.215,alien2,TRUE,2,0.147625984,86,1,0.748817246,m,0.4955,0,146,146,146,1,0.322435636,0.748817246,0.457400821,0.626838599,FALSE,,,,,,,,,,,,,,,,,,,,,,,,,,,,,,,,,
GOSH_A4,2023-11-09_13h19.40.129,two_step_task_legacy,2022.2.4,Win32,59.86948452,23,learning,0,resources/alien1_norm.png,0.311003061,resources/alien2_norm.png,0.708845948,TRUE,TRUE,3,0.036069951,red,m,0.2227,alien2,TRUE,2,0.154094582,87,1,0.708845948,m,0.5994,0,147,147,147,1,0.311003061,0.708845948,0.444423405,0.604796627,FALSE,,,,,,,,,,,,,,,,,,,,,,,,,,,,,,,,,
GOSH_A4,2023-11-09_13h19.40.129,two_step_task_legacy,2022.2.4,Win32,59.86948452,23,learning,0,resources/alien2_norm.png,0.709213445,resources/alien1_norm.png,0.323921279,TRUE,TRUE,3,0.37437325,red,m,0.2555,alien2,TRUE,2,0.536798709,88,1,0.709213445,x,0.4285,0,148,148,148,1,0.323921279,0.709213445,0.466381219,0.575008043,TRUE,,,,,,,,,,,,,,,,,,,,,,,,,,,,,,,,,
GOSH_A4,2023-11-09_13h19.40.129,two_step_task_legacy,2022.2.4,Win32,59.86948452,23,learning,0,resources/alien2_norm.png,0.703134316,resources/alien1_norm.png,0.320184667,TRUE,TRUE,3,0.69093554,red,m,0.2258,alien2,TRUE,2,0.552070821,89,1,0.703134316,x,0.3707,0,149,149,149,1,0.320184667,0.703134316,0.42955844,0.581290383,TRUE,,,,,,,,,,,,,,,,,,,,,,,,,,,,,,,,,
GOSH_A4,2023-11-09_13h19.40.129,two_step_task_legacy,2022.2.4,Win32,59.86948452,23,learning,0,resources/alien2_norm.png,0.7,resources/alien1_norm.png,0.3,TRUE,TRUE,3,0.231939557,red,m,0.206,alien2,TRUE,2,0.140497754,90,1,0.7,x,0.3373,0,150,150,150,1,0.3,0.7,0.4,0.6,TRUE,,,,,,,,,,,,,,,,,,,,,,,,,,,,,,,,,
GOSH_A4,2023-11-09_13h19.40.129,two_step_task_legacy,2022.2.4,Win32,59.86948452,23,learning,0,resources/alien2_norm.png,0.7,resources/alien1_norm.png,0.3,TRUE,TRUE,3,0.608248176,red,m,0.1961,alien2,TRUE,2,0.225958765,91,1,0.7,x,0.3607,0,151,151,151,1,0.3,0.7,0.4,0.6,TRUE,,,,,,,,,,,,,,,,,,,,,,,,,,,,,,,,,
GOSH_A4,2023-11-09_13h19.40.129,two_step_task_legacy,2022.2.4,Win32,59.86948452,23,learning,1,resources/alien3_norm.png,0.4,resources/alien4_norm.png,0.6,TRUE,TRUE,2,0.90964893,purple,m,0.4126,alien4,TRUE,3,0.936564475,91,0,0.6,m,0.9504,0,152,152,152,1,0.3,0.7,0.4,0.6,FALSE,,,,,,,,,,,,,,,,,,,,,,,,,,,,,,,,,
GOSH_A4,2023-11-09_13h19.40.129,two_step_task_legacy,2022.2.4,Win32,59.86948452,23,learning,0,resources/alien1_norm.png,0.3,resources/alien2_norm.png,0.7,TRUE,TRUE,3,0.467496686,red,m,0.2558,alien2,TRUE,2,0.657294177,92,1,0.7,m,0.7388,0,153,153,153,1,0.3,0.7,0.4,0.6,FALSE,,,,,,,,,,,,,,,,,,,,,,,,,,,,,,,,,
GOSH_A4,2023-11-09_13h19.40.129,two_step_task_legacy,2022.2.4,Win32,59.86948452,23,learning,1,resources/alien3_norm.png,0.4,resources/alien4_norm.png,0.6,TRUE,TRUE,2,0.851652506,purple,m,0.389,alien3,TRUE,3,0.842165428,92,0,0.4,x,0.5336,0,154,154,154,1,0.3,0.7,0.4,0.6,FALSE,,,,,,,,,,,,,,,,,,,,,,,,,,,,,,,,,
GOSH_A4,2023-11-09_13h19.40.129,two_step_task_legacy,2022.2.4,Win32,59.86948452,23,learning,0,resources/alien1_norm.png,0.3,resources/alien2_norm.png,0.7,TRUE,TRUE,3,0.470630701,red,m,0.1587,alien2,TRUE,3,0.792401957,92,0,0.7,m,0.596,0,155,155,155,1,0.3,0.7,0.4,0.6,FALSE,,,,,,,,,,,,,,,,,,,,,,,,,,,,,,,,,
GOSH_A4,2023-11-09_13h19.40.129,two_step_task_legacy,2022.2.4,Win32,59.86948452,23,learning,0,resources/alien2_norm.png,0.7,resources/alien1_norm.png,0.3,TRUE,TRUE,3,0.157713247,red,m,0.3314,alien2,TRUE,2,0.454789351,93,1,0.7,x,0.5599,0,156,156,156,1,0.3,0.7,0.4,0.6,TRUE,,,,,,,,,,,,,,,,,,,,,,,,,,,,,,,,,
GOSH_A4,2023-11-09_13h19.40.129,two_step_task_legacy,2022.2.4,Win32,59.86948452,23,learning,0,resources/alien1_norm.png,0.3,resources/alien2_norm.png,0.7,TRUE,TRUE,3,0.116341026,red,m,0.2005,alien2,TRUE,2,0.30533864,94,1,0.7,m,0.6527,0,157,157,157,1,0.3,0.7,0.4,0.6,FALSE,,,,,,,,,,,,,,,,,,,,,,,,,,,,,,,,,
GOSH_A4,2023-11-09_13h19.40.129,two_step_task_legacy,2022.2.4,Win32,59.86948452,23,learning,0,resources/alien1_norm.png,0.3,resources/alien2_norm.png,0.7,TRUE,TRUE,3,0.09978572,red,m,0.2719,alien2,TRUE,3,0.851566023,94,0,0.7,m,0.4858,0,158,158,158,1,0.3,0.7,0.4,0.6,FALSE,,,,,,,,,,,,,,,,,,,,,,,,,,,,,,,,,
GOSH_A4,2023-11-09_13h19.40.129,two_step_task_legacy,2022.2.4,Win32,59.86948452,23,learning,0,resources/alien2_norm.png,0.7,resources/alien1_norm.png,0.3,TRUE,TRUE,3,0.020606253,red,m,0.2271,alien2,TRUE,2,0.1140624,95,1,0.7,x,0.3988,0,159,159,159,1,0.3,0.7,0.4,0.6,TRUE,,,,,,,,,,,,,,,,,,,,,,,,,,,,,,,,,
GOSH_A4,2023-11-09_13h19.40.129,two_step_task_legacy,2022.2.4,Win32,59.86948452,23,learning,0,resources/alien1_norm.png,0.3,resources/alien2_norm.png,0.7,TRUE,TRUE,3,0.382144288,red,m,0.2142,alien2,TRUE,2,0.532661607,96,1,0.7,m,0.4845,0,160,160,160,1,0.3,0.7,0.4,0.6,FALSE,,,,,,,,,,,,,,,,,,,,,,,,,,,,,,,,,
GOSH_A4,2023-11-09_13h19.40.129,two_step_task_legacy,2022.2.4,Win32,59.86948452,23,learning,1,resources/alien4_norm.png,0.6,resources/alien3_norm.png,0.4,TRUE,TRUE,2,0.875040536,purple,m,0.2187,alien3,TRUE,2,0.143514907,97,1,0.4,m,0.9838,0,161,161,161,1,0.3,0.7,0.4,0.6,TRUE,,,,,,,,,,,,,,,,,,,,,,,,,,,,,,,,,
GOSH_A4,2023-11-09_13h19.40.129,two_step_task_legacy,2022.2.4,Win32,59.86948452,23,learning,1,resources/alien3_norm.png,0.4,resources/alien4_norm.png,0.6,TRUE,TRUE,2,0.937586094,purple,m,0.351,alien3,TRUE,3,0.719677618,97,0,0.4,x,0.556,0,162,162,162,1,0.3,0.7,0.4,0.6,FALSE,,,,,,,,,,,,,,,,,,,,,,,,,,,,,,,,,
GOSH_A4,2023-11-09_13h19.40.129,two_step_task_legacy,2022.2.4,Win32,59.86948452,23,learning,0,resources/alien1_norm.png,0.3,resources/alien2_norm.png,0.7,TRUE,TRUE,3,0.501195524,red,m,0.1604,alien2,TRUE,2,0.697591966,98,1,0.7,m,0.4883,0,163,163,163,1,0.3,0.7,0.4,0.6,FALSE,,,,,,,,,,,,,,,,,,,,,,,,,,,,,,,,,
GOSH_A4,2023-11-09_13h19.40.129,two_step_task_legacy,2022.2.4,Win32,59.86948452,23,learning,1,resources/alien3_norm.png,0.4,resources/alien4_norm.png,0.6,TRUE,TRUE,2,0.783310053,purple,m,0.3861,alien3,TRUE,3,0.991135064,98,0,0.4,x,0.9616,0,164,164,164,1,0.3,0.7,0.4,0.6,FALSE,,,,,,,,,,,,,,,,,,,,,,,,,,,,,,,,,
GOSH_A4,2023-11-09_13h19.40.129,two_step_task_legacy,2022.2.4,Win32,59.86948452,23,learning,0,resources/alien1_norm.png,0.3,resources/alien2_norm.png,0.7,TRUE,TRUE,3,0.293152868,red,m,0.217,alien2,TRUE,2,0.590884463,99,1,0.7,m,0.6095,0,165,165,165,1,0.3,0.7,0.4,0.6,FALSE,,,,,,,,,,,,,,,,,,,,,,,,,,,,,,,,,
GOSH_A4,2023-11-09_13h19.40.129,two_step_task_legacy,2022.2.4,Win32,59.86948452,23,learning,0,resources/alien2_norm.png,0.7,resources/alien1_norm.png,0.3,TRUE,TRUE,3,0.151208398,red,m,0.2172,alien2,TRUE,2,0.365802637,100,1,0.7,x,0.523,0,166,166,166,1,0.3,0.7,0.4,0.6,TRUE,,,,,,,,,,,,,,,,,,,,,,,,,,,,,,,,,
GOSH_A4,2023-11-09_13h19.40.129,two_step_task_legacy,2022.2.4,Win32,59.86948452,23,learning,1,resources/alien3_norm.png,0.4,resources/alien4_norm.png,0.6,TRUE,TRUE,2,0.857433751,purple,m,0.2091,alien3,TRUE,3,0.672105332,100,0,0.4,x,0.4941,0,167,167,167,1,0.3,0.7,0.4,0.6,FALSE,,,,,,,,,,,,,,,,,,,,,,,,,,,,,,,,,
GOSH_A4,2023-11-09_13h19.40.129,two_step_task_legacy,2022.2.4,Win32,59.86948452,23,learning,0,resources/alien1_norm.png,0.3,resources/alien2_norm.png,0.7,TRUE,TRUE,3,0.202572378,red,m,0.0381,alien2,TRUE,2,0.056959458,101,1,0.7,m,0.6049,0,168,168,168,1,0.3,0.7,0.4,0.6,FALSE,,,,,,,,,,,,,,,,,,,,,,,,,,,,,,,,,
GOSH_A4,2023-11-09_13h19.40.129,two_step_task_legacy,2022.2.4,Win32,59.86948452,23,learning,0,resources/alien2_norm.png,0.7,resources/alien1_norm.png,0.3,TRUE,TRUE,3,0.117602961,red,m,0.2291,alien2,TRUE,2,0.024605404,102,1,0.7,x,0.5294,0,169,169,169,1,0.3,0.7,0.4,0.6,TRUE,,,,,,,,,,,,,,,,,,,,,,,,,,,,,,,,,
GOSH_A4,2023-11-09_13h19.40.129,two_step_task_legacy,2022.2.4,Win32,59.86948452,23,learning,0,resources/alien2_norm.png,0.7,resources/alien1_norm.png,0.3,TRUE,TRUE,3,0.589674539,red,m,0.2269,alien2,TRUE,2,0.6337116,103,1,0.7,x,0.5164,0,170,170,170,1,0.3,0.7,0.4,0.6,TRUE,,,,,,,,,,,,,,,,,,,,,,,,,,,,,,,,,
GOSH_A4,2023-11-09_13h19.40.129,two_step_task_legacy,2022.2.4,Win32,59.86948452,23,learning,0,resources/alien1_norm.png,0.3,resources/alien2_norm.png,0.7,TRUE,TRUE,3,0.660581424,red,m,0.2363,alien2,TRUE,3,0.706809252,103,0,0.7,m,0.5994,0,171,171,171,1,0.3,0.7,0.4,0.6,FALSE,,,,,,,,,,,,,,,,,,,,,,,,,,,,,,,,,
GOSH_A4,2023-11-09_13h19.40.129,two_step_task_legacy,2022.2.4,Win32,59.86948452,23,learning,0,resources/alien2_norm.png,0.7,resources/alien1_norm.png,0.3,TRUE,TRUE,3,0.137175351,red,m,0.2329,alien2,TRUE,2,0.058778596,104,1,0.7,x,0.3932,0,172,172,172,1,0.3,0.7,0.4,0.6,TRUE,,,,,,,,,,,,,,,,,,,,,,,,,,,,,,,,,
GOSH_A4,2023-11-09_13h19.40.129,two_step_task_legacy,2022.2.4,Win32,59.86948452,23,learning,0,resources/alien1_norm.png,0.3,resources/alien2_norm.png,0.7,TRUE,TRUE,3,0.160681727,red,m,0.233,alien2,TRUE,2,0.687193339,105,1,0.7,m,0.4676,0,173,173,173,1,0.3,0.7,0.4,0.6,FALSE,,,,,,,,,,,,,,,,,,,,,,,,,,,,,,,,,
GOSH_A4,2023-11-09_13h19.40.129,two_step_task_legacy,2022.2.4,Win32,59.86948452,23,learning,0,resources/alien2_norm.png,0.7,resources/alien1_norm.png,0.3,TRUE,TRUE,3,0.246211258,red,m,0.2037,alien2,TRUE,2,0.594349984,106,1,0.7,x,0.5006,0,174,174,174,1,0.3,0.7,0.4,0.6,TRUE,,,,,,,,,,,,,,,,,,,,,,,,,,,,,,,,,
GOSH_A4,2023-11-09_13h19.40.129,two_step_task_legacy,2022.2.4,Win32,59.86948452,23,learning,1,resources/alien4_norm.png,0.6,resources/alien3_norm.png,0.4,TRUE,TRUE,2,0.944797795,purple,m,0.2341,alien4,TRUE,3,0.703842982,106,0,0.6,x,1.1672,0,175,175,175,1,0.3,0.7,0.4,0.6,TRUE,,,,,,,,,,,,,,,,,,,,,,,,,,,,,,,,,
GOSH_A4,2023-11-09_13h19.40.129,two_step_task_legacy,2022.2.4,Win32,59.86948452,23,learning,1,resources/alien3_norm.png,0.4,resources/alien4_norm.png,0.6,TRUE,TRUE,2,0.863481712,purple,m,0.2116,alien4,TRUE,2,0.335839419,107,1,0.6,m,0.895,0,176,176,176,1,0.3,0.7,0.4,0.6,FALSE,,,,,,,,,,,,,,,,,,,,,,,,,,,,,,,,,
GOSH_A4,2023-11-09_13h19.40.129,two_step_task_legacy,2022.2.4,Win32,59.86948452,23,learning,0,resources/alien2_norm.png,0.7,resources/alien1_norm.png,0.3,TRUE,TRUE,3,0.525292284,red,m,0.2066,alien2,TRUE,3,0.898492242,107,0,0.7,x,0.4247,0,177,177,177,1,0.3,0.7,0.4,0.6,TRUE,,,,,,,,,,,,,,,,,,,,,,,,,,,,,,,,,
GOSH_A4,2023-11-09_13h19.40.129,two_step_task_legacy,2022.2.4,Win32,59.86948452,23,learning,0,resources/alien2_norm.png,0.7,resources/alien1_norm.png,0.3,TRUE,TRUE,3,0.018014836,red,m,0.2276,alien2,TRUE,3,0.846210745,107,0,0.7,x,0.4006,0,178,178,178,1,0.3,0.7,0.4,0.6,TRUE,,,,,,,,,,,,,,,,,,,,,,,,,,,,,,,,,
GOSH_A4,2023-11-09_13h19.40.129,two_step_task_legacy,2022.2.4,Win32,59.86948452,23,learning,1,resources/alien3_norm.png,0.4,resources/alien4_norm.png,0.6,TRUE,TRUE,2,0.906474257,purple,m,0.2164,alien4,TRUE,3,0.630960413,107,0,0.6,m,0.683,0,179,179,179,1,0.3,0.7,0.4,0.6,FALSE,,,,,,,,,,,,,,,,,,,,,,,,,,,,,,,,,
GOSH_A4,2023-11-09_13h19.40.129,two_step_task_legacy,2022.2.4,Win32,59.86948452,23,learning,0,resources/alien1_norm.png,0.3,resources/alien2_norm.png,0.7,TRUE,TRUE,3,0.460846214,red,m,0.1857,alien2,TRUE,2,0.373879617,108,1,0.7,m,0.6753,0,180,180,180,1,0.3,0.7,0.4,0.6,FALSE,,,,,,,,,,,,,,,,,,,,,,,,,,,,,,,,,
GOSH_A4,2023-11-09_13h19.40.129,two_step_task_legacy,2022.2.4,Win32,59.86948452,23,learning,0,resources/alien2_norm.png,0.7,resources/alien1_norm.png,0.3,TRUE,TRUE,3,0.217188372,red,m,0.4448,alien2,TRUE,3,0.746082287,108,0,0.7,x,0.4484,0,181,181,181,1,0.3,0.7,0.4,0.6,TRUE,,,,,,,,,,,,,,,,,,,,,,,,,,,,,,,,,
GOSH_A4,2023-11-09_13h19.40.129,two_step_task_legacy,2022.2.4,Win32,59.86948452,23,learning,1,resources/alien3_norm.png,0.4,resources/alien4_norm.png,0.6,TRUE,TRUE,2,0.820704264,purple,m,0.2064,alien4,TRUE,2,0.044582892,109,1,0.6,m,0.7423,0,182,182,182,1,0.3,0.7,0.4,0.6,FALSE,,,,,,,,,,,,,,,,,,,,,,,,,,,,,,,,,
GOSH_A4,2023-11-09_13h19.40.129,two_step_task_legacy,2022.2.4,Win32,59.86948452,23,learning,0,resources/alien2_norm.png,0.7,resources/alien1_norm.png,0.3,TRUE,TRUE,3,0.265671923,red,m,0.2173,alien1,TRUE,3,0.319854512,109,0,0.3,m,0.7477,0,183,183,183,1,0.3,0.7,0.4,0.6,TRUE,,,,,,,,,,,,,,,,,,,,,,,,,,,,,,,,,
GOSH_A4,2023-11-09_13h19.40.129,two_step_task_legacy,2022.2.4,Win32,59.86948452,23,learning,0,resources/alien1_norm.png,0.3,resources/alien2_norm.png,0.7,TRUE,TRUE,3,0.698211271,red,m,0.1778,alien1,TRUE,2,0.284739217,110,1,0.3,x,0.6749,0,184,184,184,1,0.3,0.7,0.4,0.6,FALSE,,,,,,,,,,,,,,,,,,,,,,,,,,,,,,,,,
GOSH_A4,2023-11-09_13h19.40.129,two_step_task_legacy,2022.2.4,Win32,59.86948452,23,learning,1,resources/alien3_norm.png,0.4,resources/alien4_norm.png,0.6,TRUE,TRUE,2,0.709921874,purple,m,0.1116,alien4,TRUE,2,0.499188961,111,1,0.6,m,0.5933,0,185,185,185,1,0.3,0.7,0.4,0.6,FALSE,,,,,,,,,,,,,,,,,,,,,,,,,,,,,,,,,
GOSH_A4,2023-11-09_13h19.40.129,two_step_task_legacy,2022.2.4,Win32,59.86948452,23,learning,0,resources/alien1_norm.png,0.3,resources/alien2_norm.png,0.7,TRUE,TRUE,3,0.126111736,red,m,0.1799,alien1,TRUE,3,0.961747845,111,0,0.3,x,0.3592,0,186,186,186,1,0.3,0.7,0.4,0.6,FALSE,,,,,,,,,,,,,,,,,,,,,,,,,,,,,,,,,
GOSH_A4,2023-11-09_13h19.40.129,two_step_task_legacy,2022.2.4,Win32,59.86948452,23,learning,1,resources/alien3_norm.png,0.4,resources/alien4_norm.png,0.6,TRUE,TRUE,2,0.72138267,purple,m,0.1738,alien4,TRUE,3,0.732887978,111,0,0.6,m,0.584,0,187,187,187,1,0.3,0.7,0.4,0.6,FALSE,,,,,,,,,,,,,,,,,,,,,,,,,,,,,,,,,
GOSH_A4,2023-11-09_13h19.40.129,two_step_task_legacy,2022.2.4,Win32,59.86948452,23,learning,1,resources/alien3_norm.png,0.4,resources/alien4_norm.png,0.6,TRUE,TRUE,2,0.855471592,purple,m,0.4155,alien4,TRUE,3,0.927273459,111,0,0.6,m,0.6842,0,188,188,188,1,0.3,0.7,0.4,0.6,FALSE,,,,,,,,,,,,,,,,,,,,,,,,,,,,,,,,,
GOSH_A4,2023-11-09_13h19.40.129,two_step_task_legacy,2022.2.4,Win32,59.86948452,23,learning,0,resources/alien4_norm.png,0.6,resources/alien3_norm.png,0.4,TRUE,TRUE,2,0.329839514,purple,x,0.3009,alien4,TRUE,3,0.745245699,111,0,0.6,x,0.5167,0,189,189,189,1,0.3,0.7,0.4,0.6,TRUE,,,,,,,,,,,,,,,,,,,,,,,,,,,,,,,,,
GOSH_A4,2023-11-09_13h19.40.129,two_step_task_legacy,2022.2.4,Win32,59.86948452,23,learning,1,resources/alien2_norm.png,0.7,resources/alien1_norm.png,0.3,TRUE,TRUE,3,0.885229234,red,x,0.2436,alien1,TRUE,3,0.502085669,111,0,0.3,m,1.0538,0,190,190,190,1,0.3,0.7,0.4,0.6,TRUE,,,,,,,,,,,,,,,,,,,,,,,,,,,,,,,,,
GOSH_A4,2023-11-09_13h19.40.129,two_step_task_legacy,2022.2.4,Win32,59.86948452,23,learning,0,resources/alien4_norm.png,0.6,resources/alien3_norm.png,0.4,TRUE,TRUE,2,0.514165983,purple,x,0.3738,alien3,TRUE,2,0.288335954,112,1,0.4,m,1.373,0,191,191,191,1,0.3,0.7,0.4,0.6,TRUE,,,,,,,,,,,,,,,,,,,,,,,,,,,,,,,,,
GOSH_A4,2023-11-09_13h19.40.129,two_step_task_legacy,2022.2.4,Win32,59.86948452,23,learning,0,resources/alien4_norm.png,0.6,resources/alien3_norm.png,0.4,TRUE,TRUE,2,0.396817485,purple,x,0.1994,alien3,TRUE,2,0.387483952,113,1,0.4,m,0.5994,0,192,192,192,1,0.3,0.7,0.4,0.6,TRUE,,,,,,,,,,,,,,,,,,,,,,,,,,,,,,,,,
GOSH_A4,2023-11-09_13h19.40.129,two_step_task_legacy,2022.2.4,Win32,59.86948452,23,learning,1,resources/alien2_norm.png,0.7,resources/alien1_norm.png,0.3,TRUE,TRUE,3,0.967377894,red,x,0.1833,alien2,TRUE,2,0.348346448,114,1,0.7,x,0.8939,0,193,193,193,1,0.3,0.7,0.4,0.6,TRUE,,,,,,,,,,,,,,,,,,,,,,,,,,,,,,,,,
GOSH_A4,2023-11-09_13h19.40.129,two_step_task_legacy,2022.2.4,Win32,59.86948452,23,learning,1,resources/alien2_norm.png,0.7,resources/alien1_norm.png,0.3,TRUE,TRUE,3,0.824034987,red,x,0.1995,alien2,TRUE,2,0.50801218,115,1,0.7,x,0.4839,0,194,194,194,1,0.3,0.7,0.4,0.6,TRUE,,,,,,,,,,,,,,,,,,,,,,,,,,,,,,,,,
GOSH_A4,2023-11-09_13h19.40.129,two_step_task_legacy,2022.2.4,Win32,59.86948452,23,learning,0,resources/alien3_norm.png,0.4,resources/alien4_norm.png,0.6,TRUE,TRUE,2,0.255101331,purple,x,0.2192,alien4,TRUE,2,0.121506436,116,1,0.6,m,0.5057,0,195,195,195,1,0.3,0.7,0.4,0.6,FALSE,,,,,,,,,,,,,,,,,,,,,,,,,,,,,,,,,
GOSH_A4,2023-11-09_13h19.40.129,two_step_task_legacy,2022.2.4,Win32,59.86948452,23,learning,0,resources/alien4_norm.png,0.6,resources/alien3_norm.png,0.4,TRUE,TRUE,2,0.234947966,purple,x,0.2542,alien3,TRUE,2,0.245907321,117,1,0.4,m,0.635,0,196,196,196,1,0.3,0.7,0.4,0.6,TRUE,,,,,,,,,,,,,,,,,,,,,,,,,,,,,,,,,
GOSH_A4,2023-11-09_13h19.40.129,two_step_task_legacy,2022.2.4,Win32,59.86948452,23,learning,0,resources/alien3_norm.png,0.4,resources/alien4_norm.png,0.6,TRUE,TRUE,2,0.386012957,purple,x,0.1673,alien3,TRUE,2,0.307593712,118,1,0.4,x,0.5947,0,197,197,197,1,0.3,0.7,0.4,0.6,FALSE,,,,,,,,,,,,,,,,,,,,,,,,,,,,,,,,,
GOSH_A4,2023-11-09_13h19.40.129,two_step_task_legacy,2022.2.4,Win32,59.86948452,23,learning,1,resources/alien2_norm.png,0.7,resources/alien1_norm.png,0.3,TRUE,TRUE,3,0.77348267,red,x,0.0516,alien2,TRUE,2,0.232711518,119,1,0.7,x,1.0169,0,198,198,198,1,0.3,0.7,0.4,0.6,TRUE,,,,,,,,,,,,,,,,,,,,,,,,,,,,,,,,,
GOSH_A4,2023-11-09_13h19.40.129,two_step_task_legacy,2022.2.4,Win32,59.86948452,23,learning,0,resources/alien3_norm.png,0.4,resources/alien4_norm.png,0.6,TRUE,TRUE,2,0.048670166,purple,x,0.3289,alien3,TRUE,3,0.756496783,119,0,0.4,x,1.5498,0,199,199,199,1,0.3,0.7,0.4,0.6,FALSE,,,,,,,,,,,,,,,,,,,,,,,,,,,,,,,,,
GOSH_A4,2023-11-09_13h19.40.129,two_step_task_legacy,2022.2.4,Win32,59.86948452,23,learning,0,resources/alien3_norm.png,0.4,resources/alien4_norm.png,0.6,TRUE,TRUE,2,0.35715289,purple,x,0.1595,alien3,TRUE,3,0.600550176,119,0,0.4,x,0.6044,0,200,200,200,1,0.3,0.7,0.4,0.6,FALSE,,,,,,,,,,,,,,,,,,,,,,,,,,,,,,,,,
GOSH_A4,2023-11-09_13h19.40.129,two_step_task_legacy,2022.2.4,Win32,59.86948452,23,learning,1,resources/alien1_norm.png,0.3,resources/alien2_norm.png,0.7,TRUE,TRUE,3,0.816762695,red,x,0.1833,alien2,TRUE,2,0.34438885,120,1,0.7,m,0.6359,0,201,201,201,1,0.3,0.7,0.4,0.6,FALSE,,,,,,,,,,,,,,,,,,,,,,,,,,,,,,,,,
GOSH_A4,2023-11-09_13h19.40.129,two_step_task_legacy,2022.2.4,Win32,59.86948452,23,learning,1,resources/alien1_norm.png,0.3,resources/alien2_norm.png,0.7,TRUE,TRUE,3,0.755849514,red,x,0.2287,alien2,TRUE,2,0.303786973,121,1,0.7,m,0.5898,0,202,202,202,1,0.3,0.7,0.4,0.6,FALSE,,,,,,,,,,,,,,,,,,,,,,,,,,,,,,,,,
GOSH_A4,2023-11-09_13h19.40.129,two_step_task_legacy,2022.2.4,Win32,59.86948452,23,learning,0,resources/alien3_norm.png,0.4,resources/alien4_norm.png,0.6,TRUE,TRUE,2,0.654289862,purple,x,0.2416,alien3,TRUE,2,0.019585244,122,1,0.4,x,1.0393,0,203,203,203,1,0.3,0.7,0.4,0.6,FALSE,,,,,,,,,,,,,,,,,,,,,,,,,,,,,,,,,
GOSH_A4,2023-11-09_13h19.40.129,two_step_task_legacy,2022.2.4,Win32,59.86948452,23,learning,0,resources/alien3_norm.png,0.4,resources/alien4_norm.png,0.6,TRUE,TRUE,2,0.675215609,purple,x,0.2197,alien3,TRUE,3,0.527368448,122,0,0.4,x,0.6631,0,204,204,204,1,0.3,0.7,0.4,0.6,FALSE,,,,,,,,,,,,,,,,,,,,,,,,,,,,,,,,,
GOSH_A4,2023-11-09_13h19.40.129,two_step_task_legacy,2022.2.4,Win32,59.86948452,23,learning,0,resources/alien3_norm.png,0.4,resources/alien4_norm.png,0.6,TRUE,TRUE,2,0.378553664,purple,x,0.183,alien4,TRUE,3,0.942393313,122,0,0.6,m,0.4428,0,205,205,205,1,0.3,0.7,0.4,0.6,FALSE,,,,,,,,,,,,,,,,,,,,,,,,,,,,,,,,,
GOSH_A4,2023-11-09_13h19.40.129,two_step_task_legacy,2022.2.4,Win32,59.86948452,23,learning,1,resources/alien2_norm.png,0.7,resources/alien1_norm.png,0.3,TRUE,TRUE,3,0.874750531,red,x,0.1688,alien2,TRUE,2,0.475521247,123,1,0.7,x,0.6219,0,206,206,206,1,0.3,0.7,0.4,0.6,TRUE,,,,,,,,,,,,,,,,,,,,,,,,,,,,,,,,,
GOSH_A4,2023-11-09_13h19.40.129,two_step_task_legacy,2022.2.4,Win32,59.86948452,23,learning,0,resources/alien4_norm.png,0.6,resources/alien3_norm.png,0.4,TRUE,TRUE,2,0.053142032,purple,x,0.2163,alien4,TRUE,2,0.178613704,124,1,0.6,x,0.7056,0,207,207,207,1,0.3,0.7,0.4,0.6,TRUE,,,,,,,,,,,,,,,,,,,,,,,,,,,,,,,,,
GOSH_A4,2023-11-09_13h19.40.129,two_step_task_legacy,2022.2.4,Win32,59.86948452,23,learning,0,resources/alien3_norm.png,0.4,resources/alien4_norm.png,0.6,TRUE,TRUE,2,0.594190803,purple,x,0.0917,alien4,TRUE,2,0.040218562,125,1,0.6,m,0.745,0,208,208,208,1,0.3,0.7,0.4,0.6,FALSE,,,,,,,,,,,,,,,,,,,,,,,,,,,,,,,,,
GOSH_A4,2023-11-09_13h19.40.129,two_step_task_legacy,2022.2.4,Win32,59.86948452,23,learning,0,resources/alien4_norm.png,0.6,resources/alien3_norm.png,0.4,TRUE,TRUE,2,0.52136458,purple,x,0.2023,alien4,TRUE,2,0.096615385,126,1,0.6,x,0.5333,0,209,209,209,1,0.3,0.7,0.4,0.6,TRUE,,,,,,,,,,,,,,,,,,,,,,,,,,,,,,,,,
GOSH_A4,2023-11-09_13h19.40.129,two_step_task_legacy,2022.2.4,Win32,59.86948452,23,learning,0,resources/alien3_norm.png,0.4,resources/alien4_norm.png,0.6,TRUE,TRUE,2,0.300789215,purple,x,0.1006,alien4,TRUE,3,0.889517392,126,0,0.6,m,0.4404,0,210,210,210,1,0.3,0.7,0.4,0.6,FALSE,,,,,,,,,,,,,,,,,,,,,,,,,,,,,,,,,
GOSH_A4,2023-11-09_13h19.40.129,two_step_task_legacy,2022.2.4,Win32,59.86948452,23,learning,0,resources/alien3_norm.png,0.4,resources/alien4_norm.png,0.6,TRUE,TRUE,2,0.559808151,purple,x,0.198,alien4,TRUE,3,0.857826557,126,0,0.6,m,0.4165,0,211,211,211,1,0.3,0.7,0.4,0.6,FALSE,,,,,,,,,,,,,,,,,,,,,,,,,,,,,,,,,
GOSH_A4,2023-11-09_13h19.40.129,two_step_task_legacy,2022.2.4,Win32,59.86948452,23,learning,0,resources/alien4_norm.png,0.6,resources/alien3_norm.png,0.4,TRUE,TRUE,2,0.416619568,purple,x,0.0005,alien4,TRUE,2,0.444839448,127,1,0.6,x,0.5116,0,212,212,212,1,0.3,0.7,0.4,0.6,TRUE,,,,,,,,,,,,,,,,,,,,,,,,,,,,,,,,,
GOSH_A4,2023-11-09_13h19.40.129,two_step_task_legacy,2022.2.4,Win32,59.86948452,23,learning,0,resources/alien4_norm.png,0.6,resources/alien3_norm.png,0.4,TRUE,TRUE,2,0.115927819,purple,x,0.0282,alien4,TRUE,2,0.051492498,128,1,0.6,x,0.4508,0,213,213,213,1,0.3,0.7,0.4,0.6,TRUE,,,,,,,,,,,,,,,,,,,,,,,,,,,,,,,,,
GOSH_A4,2023-11-09_13h19.40.129,two_step_task_legacy,2022.2.4,Win32,59.86948452,23,learning,1,resources/alien2_norm.png,0.7,resources/alien1_norm.png,0.3,TRUE,TRUE,3,0.746176086,red,x,0.1264,alien2,TRUE,2,0.06887825,129,1,0.7,x,0.6917,0,214,214,214,1,0.3,0.7,0.4,0.6,TRUE,,,,,,,,,,,,,,,,,,,,,,,,,,,,,,,,,
GOSH_A4,2023-11-09_13h19.40.129,two_step_task_legacy,2022.2.4,Win32,59.86948452,23,learning,1,resources/alien1_norm.png,0.3,resources/alien2_norm.png,0.7,TRUE,TRUE,3,0.976478737,red,x,0.2832,alien2,TRUE,2,0.289135532,130,1,0.7,m,0.6179,0,215,215,215,1,0.3,0.7,0.4,0.6,FALSE,,,,,,,,,,,,,,,,,,,,,,,,,,,,,,,,,
GOSH_A4,2023-11-09_13h19.40.129,two_step_task_legacy,2022.2.4,Win32,59.86948452,23,learning,0,resources/alien4_norm.png,0.6,resources/alien3_norm.png,0.4,TRUE,TRUE,2,0.477375363,purple,x,0.2596,alien4,TRUE,3,0.722734515,130,0,0.6,x,0.4197,0,216,216,216,1,0.3,0.7,0.4,0.6,TRUE,,,,,,,,,,,,,,,,,,,,,,,,,,,,,,,,,
GOSH_A4,2023-11-09_13h19.40.129,two_step_task_legacy,2022.2.4,Win32,59.86948452,23,learning,0,resources/alien3_norm.png,0.4,resources/alien4_norm.png,0.6,TRUE,TRUE,2,0.585034292,purple,x,0.104,alien4,TRUE,2,0.336259899,131,1,0.6,m,0.5842,0,217,217,217,1,0.3,0.7,0.4,0.6,FALSE,,,,,,,,,,,,,,,,,,,,,,,,,,,,,,,,,
GOSH_A4,2023-11-09_13h19.40.129,two_step_task_legacy,2022.2.4,Win32,59.86948452,23,learning,1,resources/alien2_norm.png,0.7,resources/alien1_norm.png,0.3,TRUE,TRUE,3,0.95564368,red,x,0.0838,alien2,TRUE,3,0.947070755,131,0,0.7,x,0.5907,0,218,218,218,1,0.3,0.7,0.4,0.6,TRUE,,,,,,,,,,,,,,,,,,,,,,,,,,,,,,,,,
GOSH_A4,2023-11-09_13h19.40.129,two_step_task_legacy,2022.2.4,Win32,59.86948452,23,learning,0,resources/alien4_norm.png,0.6,resources/alien3_norm.png,0.4,TRUE,TRUE,2,0.212263845,purple,x,0.2313,alien4,TRUE,3,0.78051758,131,0,0.6,x,0.4942,0,219,219,219,1,0.3,0.7,0.4,0.6,TRUE,,,,,,,,,,,,,,,,,,,,,,,,,,,,,,,,,
GOSH_A4,2023-11-09_13h19.40.129,two_step_task_legacy,2022.2.4,Win32,59.86948452,23,learning,0,resources/alien4_norm.png,0.6,resources/alien3_norm.png,0.4,TRUE,TRUE,2,0.631431617,purple,x,0.0401,alien4,TRUE,2,0.388073804,132,1,0.6,x,0.521,0,220,220,220,1,0.3,0.7,0.4,0.6,TRUE,,,,,,,,,,,,,,,,,,,,,,,,,,,,,,,,,
GOSH_A4,2023-11-09_13h19.40.129,two_step_task_legacy,2022.2.4,Win32,59.86948452,23,learning,0,resources/alien3_norm.png,0.4,resources/alien4_norm.png,0.6,TRUE,TRUE,2,0.540957246,purple,x,0.5673,alien4,TRUE,2,0.208536608,133,1,0.6,m,0.6333,0,221,221,221,1,0.3,0.7,0.4,0.6,FALSE,,,,,,,,,,,,,,,,,,,,,,,,,,,,,,,,,
GOSH_A4,2023-11-09_13h19.40.129,two_step_task_legacy,2022.2.4,Win32,59.86948452,23,learning,0,resources/alien4_norm.png,0.6,resources/alien3_norm.png,0.4,TRUE,TRUE,2,0.507638484,purple,x,0.0978,alien4,TRUE,2,0.515954994,134,1,0.6,x,0.4849,0,222,222,222,1,0.3,0.7,0.4,0.6,TRUE,,,,,,,,,,,,,,,,,,,,,,,,,,,,,,,,,
GOSH_A4,2023-11-09_13h19.40.129,two_step_task_legacy,2022.2.4,Win32,59.86948452,23,learning,0,resources/alien3_norm.png,0.4,resources/alien4_norm.png,0.6,TRUE,TRUE,2,0.252124103,purple,x,0.233,alien4,TRUE,2,0.51345006,135,1,0.6,m,0.4414,0,223,223,223,1,0.3,0.7,0.4,0.6,FALSE,,,,,,,,,,,,,,,,,,,,,,,,,,,,,,,,,
GOSH_A4,2023-11-09_13h19.40.129,two_step_task_legacy,2022.2.4,Win32,59.86948452,23,learning,1,resources/alien2_norm.png,0.7,resources/alien1_norm.png,0.3,TRUE,TRUE,3,0.817510225,red,x,0.033,alien2,TRUE,2,0.183607964,136,1,0.7,x,0.5657,0,224,224,224,1,0.3,0.7,0.4,0.6,TRUE,,,,,,,,,,,,,,,,,,,,,,,,,,,,,,,,,
GOSH_A4,2023-11-09_13h19.40.129,two_step_task_legacy,2022.2.4,Win32,59.86948452,23,learning,0,resources/alien4_norm.png,0.6,resources/alien3_norm.png,0.4,TRUE,TRUE,2,0.444681115,purple,x,0.0836,alien4,TRUE,2,0.413910057,137,1,0.6,x,0.4646,0,225,225,225,1,0.3,0.7,0.4,0.6,TRUE,,,,,,,,,,,,,,,,,,,,,,,,,,,,,,,,,
GOSH_A4,2023-11-09_13h19.40.129,two_step_task_legacy,2022.2.4,Win32,59.86948452,23,learning,0,resources/alien4_norm.png,0.6,resources/alien3_norm.png,0.4,TRUE,TRUE,2,0.244716901,purple,x,0.1885,alien4,TRUE,3,0.816234413,137,0,0.6,x,0.5237,0,226,226,226,1,0.3,0.7,0.4,0.6,TRUE,,,,,,,,,,,,,,,,,,,,,,,,,,,,,,,,,
GOSH_A4,2023-11-09_13h19.40.129,two_step_task_legacy,2022.2.4,Win32,59.86948452,23,learning,0,resources/alien4_norm.png,0.6,resources/alien3_norm.png,0.4,TRUE,TRUE,2,0.062863111,purple,x,0.1263,alien4,TRUE,2,0.381501869,138,1,0.6,x,0.4271,0,227,227,227,1,0.3,0.7,0.4,0.6,TRUE,,,,,,,,,,,,,,,,,,,,,,,,,,,,,,,,,
GOSH_A4,2023-11-09_13h19.40.129,two_step_task_legacy,2022.2.4,Win32,59.86948452,23,learning,1,resources/alien1_norm.png,0.3,resources/alien2_norm.png,0.7,TRUE,TRUE,3,0.854114374,red,x,0.2895,alien2,TRUE,2,0.372923719,139,1,0.7,m,0.6851,0,228,228,228,1,0.3,0.7,0.4,0.6,FALSE,,,,,,,,,,,,,,,,,,,,,,,,,,,,,,,,,
GOSH_A4,2023-11-09_13h19.40.129,two_step_task_legacy,2022.2.4,Win32,59.86948452,23,learning,1,resources/alien2_norm.png,0.7,resources/alien1_norm.png,0.3,TRUE,TRUE,3,0.882895756,red,x,0.2831,alien2,TRUE,2,0.515704659,140,1,0.7,x,0.5136,0,229,229,229,1,0.3,0.7,0.4,0.6,TRUE,,,,,,,,,,,,,,,,,,,,,,,,,,,,,,,,,
GOSH_A4,2023-11-09_13h19.40.129,two_step_task_legacy,2022.2.4,Win32,59.86948452,23,learning,0,resources/alien4_norm.png,0.6,resources/alien3_norm.png,0.4,TRUE,TRUE,2,0.051081111,purple,x,0.2379,alien4,TRUE,2,0.192218985,141,1,0.6,x,0.4583,0,230,230,230,1,0.3,0.7,0.4,0.6,TRUE,,,,,,,,,,,,,,,,,,,,,,,,,,,,,,,,,
GOSH_A4,2023-11-09_13h19.40.129,two_step_task_legacy,2022.2.4,Win32,59.86948452,23,learning,1,resources/alien2_norm.png,0.7,resources/alien1_norm.png,0.3,TRUE,TRUE,3,0.964706277,red,x,0.1736,alien2,TRUE,2,0.050461983,142,1,0.7,x,0.4642,0,231,231,231,1,0.3,0.7,0.4,0.6,TRUE,,,,,,,,,,,,,,,,,,,,,,,,,,,,,,,,,
GOSH_A4,2023-11-09_13h19.40.129,two_step_task_legacy,2022.2.4,Win32,59.86948452,23,learning,1,resources/alien1_norm.png,0.3,resources/alien2_norm.png,0.7,TRUE,TRUE,3,0.772117287,red,x,0.3031,alien2,TRUE,2,0.092958196,143,1,0.7,m,0.5665,0,232,232,232,1,0.3,0.7,0.4,0.6,FALSE,,,,,,,,,,,,,,,,,,,,,,,,,,,,,,,,,
GOSH_A4,2023-11-09_13h19.40.129,two_step_task_legacy,2022.2.4,Win32,59.86948452,23,learning,0,resources/alien4_norm.png,0.6,resources/alien3_norm.png,0.4,TRUE,TRUE,2,0.413879959,purple,x,0.2234,alien4,TRUE,2,0.152061981,144,1,0.6,x,0.4508,0,233,233,233,1,0.3,0.7,0.4,0.6,TRUE,,,,,,,,,,,,,,,,,,,,,,,,,,,,,,,,,
GOSH_A4,2023-11-09_13h19.40.129,two_step_task_legacy,2022.2.4,Win32,59.86948452,23,learning,1,resources/alien1_norm.png,0.3,resources/alien2_norm.png,0.7,TRUE,TRUE,3,0.899381836,red,x,0.2445,alien2,TRUE,2,0.342891406,145,1,0.7,m,0.4502,0,234,234,234,1,0.3,0.7,0.4,0.6,FALSE,,,,,,,,,,,,,,,,,,,,,,,,,,,,,,,,,
GOSH_A4,2023-11-09_13h19.40.129,two_step_task_legacy,2022.2.4,Win32,59.86948452,23,learning,0,resources/alien3_norm.png,0.4,resources/alien4_norm.png,0.6,TRUE,TRUE,2,0.114958247,purple,x,0.234,alien4,TRUE,3,0.662542091,145,0,0.6,m,0.4338,0,235,235,235,1,0.3,0.7,0.4,0.6,FALSE,,,,,,,,,,,,,,,,,,,,,,,,,,,,,,,,,
GOSH_A4,2023-11-09_13h19.40.129,two_step_task_legacy,2022.2.4,Win32,59.86948452,23,learning,0,resources/alien3_norm.png,0.4,resources/alien4_norm.png,0.6,TRUE,TRUE,2,0.265058275,purple,x,0.1936,alien4,TRUE,2,0.312461334,146,1,0.6,m,0.4179,0,236,236,236,1,0.3,0.7,0.4,0.6,FALSE,,,,,,,,,,,,,,,,,,,,,,,,,,,,,,,,,
GOSH_A4,2023-11-09_13h19.40.129,two_step_task_legacy,2022.2.4,Win32,59.86948452,23,learning,0,resources/alien3_norm.png,0.4,resources/alien4_norm.png,0.6,TRUE,TRUE,2,0.198655277,purple,x,0.224,alien4,TRUE,3,0.909277509,146,0,0.6,m,0.4473,0,237,237,237,1,0.3,0.7,0.4,0.6,FALSE,,,,,,,,,,,,,,,,,,,,,,,,,,,,,,,,,
GOSH_A4,2023-11-09_13h19.40.129,two_step_task_legacy,2022.2.4,Win32,59.86948452,23,learning,0,resources/alien3_norm.png,0.4,resources/alien4_norm.png,0.6,TRUE,TRUE,2,0.01764737,purple,x,0.1816,alien4,TRUE,2,0.317558734,147,1,0.6,m,0.4131,0,238,238,238,1,0.3,0.7,0.4,0.6,FALSE,,,,,,,,,,,,,,,,,,,,,,,,,,,,,,,,,
GOSH_A4,2023-11-09_13h19.40.129,two_step_task_legacy,2022.2.4,Win32,59.86948452,23,learning,0,resources/alien3_norm.png,0.4,resources/alien4_norm.png,0.6,TRUE,TRUE,2,0.67870855,purple,x,0.1605,alien4,TRUE,3,0.605735827,147,0,0.6,m,0.3707,0,239,239,239,1,0.3,0.7,0.4,0.6,FALSE,,,,,,,,,,,,,,,,,,,,,,,,,,,,,,,,,
GOSH_A4,2023-11-09_13h19.40.129,two_step_task_legacy,2022.2.4,Win32,59.86948452,23,learning,0,resources/alien3_norm.png,0.4,resources/alien4_norm.png,0.6,TRUE,TRUE,2,0.172015322,purple,x,0.2054,alien4,TRUE,3,0.637645731,147,0,0.6,m,0.3559,0,240,240,240,1,0.3,0.7,0.4,0.6,FALSE,,,,,,,,,,,,,,,,,,,,,,,,,,,,,,,,,
GOSH_A4,2023-11-09_13h19.40.129,two_step_task_legacy,2022.2.4,Win32,59.86948452,23,learning,0,resources/alien3_norm.png,0.4,resources/alien4_norm.png,0.6,TRUE,TRUE,2,0.184800223,purple,x,0.1279,alien3,TRUE,3,0.737040423,147,0,0.4,x,0.4056,0,241,241,241,1,0.3,0.7,0.4,0.6,FALSE,,,,,,,,,,,,,,,,,,,,,,,,,,,,,,,,,
GOSH_A4,2023-11-09_13h19.40.129,two_step_task_legacy,2022.2.4,Win32,59.86948452,23,learning,0,resources/alien3_norm.png,0.4,resources/alien4_norm.png,0.6,TRUE,TRUE,2,0.200023726,purple,x,0.154,alien3,TRUE,3,0.563885108,147,0,0.4,x,0.3161,0,242,242,242,1,0.3,0.7,0.4,0.6,FALSE,,,,,,,,,,,,,,,,,,,,,,,,,,,,,,,,,
GOSH_A4,2023-11-09_13h19.40.129,two_step_task_legacy,2022.2.4,Win32,59.86948452,23,learning,0,resources/alien3_norm.png,0.4,resources/alien4_norm.png,0.6,TRUE,TRUE,2,0.642294649,purple,x,0.2726,alien3,TRUE,3,0.512810316,147,0,0.4,x,0.3873,0,243,243,243,1,0.3,0.7,0.4,0.6,FALSE,,,,,,,,,,,,,,,,,,,,,,,,,,,,,,,,,
GOSH_A4,2023-11-09_13h19.40.129,two_step_task_legacy,2022.2.4,Win32,59.86948452,23,learning,1,resources/alien3_norm.png,0.4,resources/alien4_norm.png,0.6,TRUE,TRUE,2,0.709612915,purple,m,0.1521,alien4,TRUE,3,0.848148338,147,0,0.6,m,1.1562,0,244,244,244,1,0.3,0.7,0.4,0.6,FALSE,,,,,,,,,,,,,,,,,,,,,,,,,,,,,,,,,
GOSH_A4,2023-11-09_13h19.40.129,two_step_task_legacy,2022.2.4,Win32,59.86948452,23,learning,0,resources/alien2_norm.png,0.7,resources/alien1_norm.png,0.3,TRUE,TRUE,3,0.263870619,red,m,0.2518,alien2,TRUE,2,0.410717482,148,1,0.7,x,0.9625,0,245,245,245,1,0.3,0.7,0.4,0.6,TRUE,,,,,,,,,,,,,,,,,,,,,,,,,,,,,,,,,
GOSH_A4,2023-11-09_13h19.40.129,two_step_task_legacy,2022.2.4,Win32,59.86948452,23,learning,0,resources/alien1_norm.png,0.3,resources/alien2_norm.png,0.7,TRUE,TRUE,3,0.137729411,red,m,0.2267,alien2,TRUE,3,0.882166942,148,0,0.7,m,0.5435,0,246,246,246,1,0.3,0.7,0.4,0.6,FALSE,,,,,,,,,,,,,,,,,,,,,,,,,,,,,,,,,
GOSH_A4,2023-11-09_13h19.40.129,two_step_task_legacy,2022.2.4,Win32,59.86948452,23,learning,0,resources/alien2_norm.png,0.7,resources/alien1_norm.png,0.3,TRUE,TRUE,3,0.578347246,red,m,0.1708,alien2,TRUE,2,0.234998141,149,1,0.7,x,0.7678,0,247,247,247,1,0.3,0.7,0.4,0.6,TRUE,,,,,,,,,,,,,,,,,,,,,,,,,,,,,,,,,
GOSH_A4,2023-11-09_13h19.40.129,two_step_task_legacy,2022.2.4,Win32,59.86948452,23,learning,0,resources/alien2_norm.png,0.7,resources/alien1_norm.png,0.3,TRUE,TRUE,3,0.090411275,red,m,0.1048,alien2,TRUE,2,0.684682908,150,1,0.7,x,0.3841,0,248,248,248,1,0.3,0.7,0.4,0.6,TRUE,,,,,,,,,,,,,,,,,,,,,,,,,,,,,,,,,
GOSH_A4,2023-11-09_13h19.40.129,two_step_task_legacy,2022.2.4,Win32,59.86948452,23,learning,0,resources/alien1_norm.png,0.3,resources/alien2_norm.png,0.7,TRUE,TRUE,3,0.043251717,red,m,0.1338,alien2,TRUE,3,0.792609028,150,0,0.7,m,0.4243,0,249,249,249,1,0.3,0.7,0.4,0.6,FALSE,,,,,,,,,,,,,,,,,,,,,,,,,,,,,,,,,
GOSH_A4,2023-11-09_13h19.40.129,two_step_task_legacy,2022.2.4,Win32,59.86948452,23,learning,1,resources/alien4_norm.png,0.6,resources/alien3_norm.png,0.4,TRUE,TRUE,2,0.947830463,purple,m,0.2036,alien4,TRUE,3,0.815905322,150,0,0.6,x,1.1204,0,250,250,250,1,0.3,0.7,0.4,0.6,TRUE,,,,,,,,,,,,,,,,,,,,,,,,,,,,,,,,,
GOSH_A4,2023-11-09_13h19.40.129,two_step_task_legacy,2022.2.4,Win32,59.86948452,23,learning,0,resources/alien1_norm.png,0.3,resources/alien2_norm.png,0.7,TRUE,TRUE,3,0.15337992,red,m,0.1765,alien2,TRUE,2,0.000782724,151,1,0.7,m,0.5367,0,251,251,251,1,0.3,0.7,0.4,0.6,FALSE,,,,,,,,,,,,,,,,,,,,,,,,,,,,,,,,,
GOSH_A4,2023-11-09_13h19.40.129,two_step_task_legacy,2022.2.4,Win32,59.86948452,23,learning,1,resources/alien3_norm.png,0.4,resources/alien4_norm.png,0.6,TRUE,TRUE,2,0.732630445,purple,m,0.3336,alien3,TRUE,2,0.19988114,152,1,0.4,x,0.4891,0,252,252,252,1,0.3,0.7,0.4,0.6,FALSE,,,,,,,,,,,,,,,,,,,,,,,,,,,,,,,,,
GOSH_A4,2023-11-09_13h19.40.129,two_step_task_legacy,2022.2.4,Win32,59.86948452,23,learning,0,resources/alien2_norm.png,0.7,resources/alien1_norm.png,0.3,TRUE,TRUE,3,0.376212705,red,m,0.1344,alien2,TRUE,3,0.92860648,152,0,0.7,x,0.5326,0,253,253,253,1,0.3,0.7,0.4,0.6,TRUE,,,,,,,,,,,,,,,,,,,,,,,,,,,,,,,,,
GOSH_A4,2023-11-09_13h19.40.129,two_step_task_legacy,2022.2.4,Win32,59.86948452,23,learning,0,resources/alien2_norm.png,0.7,resources/alien1_norm.png,0.3,TRUE,TRUE,3,0.584907901,red,m,0.2376,alien2,TRUE,3,0.853284315,152,0,0.7,x,0.3914,0,254,254,254,1,0.3,0.7,0.4,0.6,TRUE,,,,,,,,,,,,,,,,,,,,,,,,,,,,,,,,,
GOSH_A4,2023-11-09_13h19.40.129,two_step_task_legacy,2022.2.4,Win32,59.86948452,23,learning,1,resources/alien3_norm.png,0.4,resources/alien4_norm.png,0.6,TRUE,TRUE,2,0.795075478,purple,m,0.2006,alien3,TRUE,3,0.991821399,152,0,0.4,x,1.3284,0,255,255,255,1,0.3,0.7,0.4,0.6,FALSE,,,,,,,,,,,,,,,,,,,,,,,,,,,,,,,,,
GOSH_A4,2023-11-09_13h19.40.129,two_step_task_legacy,2022.2.4,Win32,59.86948452,23,learning,1,resources/alien4_norm.png,0.6,resources/alien3_norm.png,0.4,TRUE,TRUE,2,0.789870003,purple,m,0.0006,alien3,TRUE,3,0.947218269,152,0,0.4,m,0.5736,0,256,256,256,1,0.3,0.7,0.4,0.6,TRUE,,,,,,,,,,,,,,,,,,,,,,,,,,,,,,,,,
GOSH_A4,2023-11-09_13h19.40.129,two_step_task_legacy,2022.2.4,Win32,59.86948452,23,learning,0,resources/alien2_norm.png,0.7,resources/alien1_norm.png,0.3,TRUE,TRUE,3,0.623184282,red,m,0.1703,alien1,TRUE,2,0.243299881,153,1,0.3,m,1.0671,0,257,257,257,1,0.3,0.7,0.4,0.6,TRUE,,,,,,,,,,,,,,,,,,,,,,,,,,,,,,,,,
GOSH_A4,2023-11-09_13h19.40.129,two_step_task_legacy,2022.2.4,Win32,59.86948452,23,learning,0,resources/alien2_norm.png,0.7,resources/alien1_norm.png,0.3,TRUE,TRUE,3,0.366932748,red,m,0.6519,alien1,TRUE,3,0.851361958,153,0,0.3,m,0.4324,0,258,258,258,1,0.3,0.7,0.4,0.6,TRUE,,,,,,,,,,,,,,,,,,,,,,,,,,,,,,,,,
GOSH_A4,2023-11-09_13h19.40.129,two_step_task_legacy,2022.2.4,Win32,59.86948452,23,learning,0,resources/alien2_norm.png,0.7,resources/alien1_norm.png,0.3,TRUE,TRUE,3,0.426744093,red,m,0.2331,alien1,TRUE,3,0.426849467,153,0,0.3,m,0.4239,0,259,259,259,1,0.3,0.7,0.4,0.6,TRUE,,,,,,,,,,,,,,,,,,,,,,,,,,,,,,,,,
GOSH_A4,2023-11-09_13h19.40.129,two_step_task_legacy,2022.2.4,Win32,59.86948452,23,learning,1,resources/alien2_norm.png,0.7,resources/alien1_norm.png,0.3,TRUE,TRUE,3,0.932638041,red,x,0.2452,alien1,TRUE,2,0.154694514,154,1,0.3,m,1.2624,0,260,260,260,1,0.3,0.7,0.4,0.6,TRUE,,,,,,,,,,,,,,,,,,,,,,,,,,,,,,,,,
GOSH_A4,2023-11-09_13h19.40.129,two_step_task_legacy,2022.2.4,Win32,59.86948452,23,learning,0,resources/alien3_norm.png,0.4,resources/alien4_norm.png,0.6,TRUE,TRUE,2,0.630553056,purple,x,0.2408,alien4,TRUE,2,0.164614162,155,1,0.6,m,0.8609,0,261,261,261,1,0.3,0.7,0.4,0.6,FALSE,,,,,,,,,,,,,,,,,,,,,,,,,,,,,,,,,
GOSH_A4,2023-11-09_13h19.40.129,two_step_task_legacy,2022.2.4,Win32,59.86948452,23,learning,1,resources/alien2_norm.png,0.7,resources/alien1_norm.png,0.3,TRUE,TRUE,3,0.76594726,red,x,0.2314,alien1,TRUE,2,0.197784527,156,1,0.3,m,0.4155,0,262,262,262,1,0.3,0.7,0.4,0.6,TRUE,,,,,,,,,,,,,,,,,,,,,,,,,,,,,,,,,
GOSH_A4,2023-11-09_13h19.40.129,two_step_task_legacy,2022.2.4,Win32,59.86948452,23,learning,0,resources/alien3_norm.png,0.4,resources/alien4_norm.png,0.6,TRUE,TRUE,2,0.197584601,purple,x,0.1498,alien4,TRUE,3,0.91683196,156,0,0.6,m,0.7191,0,263,263,263,1,0.3,0.7,0.4,0.6,FALSE,,,,,,,,,,,,,,,,,,,,,,,,,,,,,,,,,
GOSH_A4,2023-11-09_13h19.40.129,two_step_task_legacy,2022.2.4,Win32,59.86948452,23,learning,1,resources/alien2_norm.png,0.7,resources/alien1_norm.png,0.3,TRUE,TRUE,3,0.975332037,red,x,0.1432,alien1,TRUE,3,0.542239738,156,0,0.3,m,0.3544,0,264,264,264,1,0.3,0.7,0.4,0.6,TRUE,,,,,,,,,,,,,,,,,,,,,,,,,,,,,,,,,
GOSH_A4,2023-11-09_13h19.40.129,two_step_task_legacy,2022.2.4,Win32,59.86948452,23,learning,1,resources/alien1_norm.png,0.3,resources/alien2_norm.png,0.7,TRUE,TRUE,3,0.709275934,red,x,0.1615,alien1,TRUE,3,0.450294888,156,0,0.3,x,0.7627,0,265,265,265,1,0.3,0.7,0.4,0.6,FALSE,,,,,,,,,,,,,,,,,,,,,,,,,,,,,,,,,
GOSH_A4,2023-11-09_13h19.40.129,two_step_task_legacy,2022.2.4,Win32,59.86948452,23,learning,0,resources/alien3_norm.png,0.4,resources/alien4_norm.png,0.6,TRUE,TRUE,2,0.51754442,purple,x,0.0005,alien4,TRUE,2,0.072237598,157,1,0.6,m,0.9507,0,266,266,266,1,0.3,0.7,0.4,0.6,FALSE,,,,,,,,,,,,,,,,,,,,,,,,,,,,,,,,,
GOSH_A4,2023-11-09_13h19.40.129,two_step_task_legacy,2022.2.4,Win32,59.86948452,23,learning,0,resources/alien4_norm.png,0.6,resources/alien3_norm.png,0.4,TRUE,TRUE,2,0.230969748,purple,x,0.0565,alien4,TRUE,3,0.967267855,157,0,0.6,x,0.4743,0,267,267,267,1,0.3,0.7,0.4,0.6,TRUE,,,,,,,,,,,,,,,,,,,,,,,,,,,,,,,,,
GOSH_A4,2023-11-09_13h19.40.129,two_step_task_legacy,2022.2.4,Win32,59.86948452,23,learning,1,resources/alien2_norm.png,0.7,resources/alien1_norm.png,0.3,TRUE,TRUE,3,0.723420913,red,x,0.1734,alien1,TRUE,3,0.698519347,157,0,0.3,m,0.9392,0,268,268,268,1,0.3,0.7,0.4,0.6,TRUE,,,,,,,,,,,,,,,,,,,,,,,,,,,,,,,,,
GOSH_A4,2023-11-09_13h19.40.129,two_step_task_legacy,2022.2.4,Win32,59.86948452,23,learning,1,resources/alien2_norm.png,0.7,resources/alien1_norm.png,0.3,TRUE,TRUE,3,0.776672101,red,x,0.0672,alien2,TRUE,3,0.869801005,157,0,0.7,x,0.5129,0,269,269,269,1,0.3,0.7,0.4,0.6,TRUE,,,,,,,,,,,,,,,,,,,,,,,,,,,,,,,,,
GOSH_A4,2023-11-09_13h19.40.129,two_step_task_legacy,2022.2.4,Win32,59.86948452,23,learning,1,resources/alien2_norm.png,0.7,resources/alien1_norm.png,0.3,TRUE,TRUE,3,0.744419891,red,x,0.1049,alien2,TRUE,2,0.569605582,158,1,0.7,x,0.4342,0,270,270,270,1,0.3,0.7,0.4,0.6,TRUE,,,,,,,,,,,,,,,,,,,,,,,,,,,,,,,,,
GOSH_A4,2023-11-09_13h19.40.129,two_step_task_legacy,2022.2.4,Win32,59.86948452,23,learning,0,resources/alien4_norm.png,0.6,resources/alien3_norm.png,0.4,TRUE,TRUE,2,0.332044778,purple,x,0.0849,alien4,TRUE,2,0.020419092,159,1,0.6,x,0.447,0,271,271,271,1,0.3,0.7,0.4,0.6,TRUE,,,,,,,,,,,,,,,,,,,,,,,,,,,,,,,,,
GOSH_A4,2023-11-09_13h19.40.129,two_step_task_legacy,2022.2.4,Win32,59.86948452,23,learning,1,resources/alien2_norm.png,0.7,resources/alien1_norm.png,0.3,TRUE,TRUE,3,0.918440668,red,x,0.0499,alien2,TRUE,2,0.052983509,160,1,0.7,x,0.4482,0,272,272,272,1,0.3,0.7,0.4,0.6,TRUE,,,,,,,,,,,,,,,,,,,,,,,,,,,,,,,,,
GOSH_A4,2023-11-09_13h19.40.129,two_step_task_legacy,2022.2.4,Win32,59.86948452,23,learning,0,resources/alien4_norm.png,0.6,resources/alien3_norm.png,0.4,TRUE,TRUE,2,0.529919908,purple,x,0.2499,alien4,TRUE,2,0.347952464,161,1,0.6,x,0.3962,0,273,273,273,1,0.3,0.7,0.4,0.6,TRUE,,,,,,,,,,,,,,,,,,,,,,,,,,,,,,,,,
GOSH_A4,2023-11-09_13h19.40.129,two_step_task_legacy,2022.2.4,Win32,59.86948452,23,learning,1,resources/alien1_norm.png,0.3,resources/alien2_norm.png,0.7,TRUE,TRUE,3,0.941826247,red,x,0.3005,alien2,TRUE,3,0.983928958,161,0,0.7,m,0.5533,0,274,274,274,1,0.3,0.7,0.4,0.6,FALSE,,,,,,,,,,,,,,,,,,,,,,,,,,,,,,,,,
GOSH_A4,2023-11-09_13h19.40.129,two_step_task_legacy,2022.2.4,Win32,59.86948452,23,learning,0,resources/alien4_norm.png,0.6,resources/alien3_norm.png,0.4,TRUE,TRUE,2,0.308896693,purple,x,0.1505,alien4,TRUE,3,0.972603595,161,0,0.6,x,0.6839,0,275,275,275,1,0.3,0.7,0.4,0.6,TRUE,,,,,,,,,,,,,,,,,,,,,,,,,,,,,,,,,
GOSH_A4,2023-11-09_13h19.40.129,two_step_task_legacy,2022.2.4,Win32,59.86948452,23,learning,0,resources/alien3_norm.png,0.4,resources/alien4_norm.png,0.6,TRUE,TRUE,2,0.166183426,purple,x,0.2024,alien4,TRUE,2,0.095536922,162,1,0.6,m,0.8345,0,276,276,276,1,0.3,0.7,0.4,0.6,FALSE,,,,,,,,,,,,,,,,,,,,,,,,,,,,,,,,,
GOSH_A4,2023-11-09_13h19.40.129,two_step_task_legacy,2022.2.4,Win32,59.86948452,23,learning,0,resources/alien4_norm.png,0.6,resources/alien3_norm.png,0.4,TRUE,TRUE,2,0.460988554,purple,x,0.0171,alien4,TRUE,3,0.746768334,162,0,0.6,x,0.6913,0,277,277,277,1,0.3,0.7,0.4,0.6,TRUE,,,,,,,,,,,,,,,,,,,,,,,,,,,,,,,,,
GOSH_A4,2023-11-09_13h19.40.129,two_step_task_legacy,2022.2.4,Win32,59.86948452,23,learning,0,resources/alien3_norm.png,0.4,resources/alien4_norm.png,0.6,TRUE,TRUE,2,0.34899611,purple,x,0.0505,alien4,TRUE,2,0.434003656,163,1,0.6,m,0.4188,0,278,278,278,1,0.3,0.7,0.4,0.6,FALSE,,,,,,,,,,,,,,,,,,,,,,,,,,,,,,,,,
GOSH_A4,2023-11-09_13h19.40.129,two_step_task_legacy,2022.2.4,Win32,59.86948452,23,learning,0,resources/alien3_norm.png,0.4,resources/alien4_norm.png,0.6,TRUE,TRUE,2,0.541160791,purple,x,0.2506,alien4,TRUE,3,0.981210842,163,0,0.6,m,0.4152,0,279,279,279,1,0.3,0.7,0.4,0.6,FALSE,,,,,,,,,,,,,,,,,,,,,,,,,,,,,,,,,
GOSH_A4,2023-11-09_13h19.40.129,two_step_task_legacy,2022.2.4,Win32,59.86948452,23,learning,0,resources/alien4_norm.png,0.6,resources/alien3_norm.png,0.4,TRUE,TRUE,2,0.207338365,purple,x,0.0647,alien4,TRUE,3,0.746162229,163,0,0.6,x,0.4908,0,280,280,280,1,0.3,0.7,0.4,0.6,TRUE,,,,,,,,,,,,,,,,,,,,,,,,,,,,,,,,,
GOSH_A4,2023-11-09_13h19.40.129,two_step_task_legacy,2022.2.4,Win32,59.86948452,23,learning,0,resources/alien4_norm.png,0.6,resources/alien3_norm.png,0.4,TRUE,TRUE,2,0.29638514,purple,x,0.3342,alien4,TRUE,2,0.232555248,164,1,0.6,x,0.3882,0,281,281,281,1,0.3,0.7,0.4,0.6,TRUE,,,,,,,,,,,,,,,,,,,,,,,,,,,,,,,,,
GOSH_A4,2023-11-09_13h19.40.129,two_step_task_legacy,2022.2.4,Win32,59.86948452,23,learning,0,resources/alien3_norm.png,0.4,resources/alien4_norm.png,0.6,TRUE,TRUE,2,0.623014204,purple,x,0.101,alien4,TRUE,2,0.071249809,165,1,0.6,m,0.4761,0,282,282,282,1,0.3,0.7,0.4,0.6,FALSE,,,,,,,,,,,,,,,,,,,,,,,,,,,,,,,,,
GOSH_A4,2023-11-09_13h19.40.129,two_step_task_legacy,2022.2.4,Win32,59.86948452,23,learning,1,resources/alien2_norm.png,0.7,resources/alien1_norm.png,0.3,TRUE,TRUE,3,0.989719085,red,x,0.2176,alien2,TRUE,3,0.929995776,165,0,0.7,x,0.8974,0,283,283,283,1,0.3,0.7,0.4,0.6,TRUE,,,,,,,,,,,,,,,,,,,,,,,,,,,,,,,,,
GOSH_A4,2023-11-09_13h19.40.129,two_step_task_legacy,2022.2.4,Win32,59.86948452,23,learning,0,resources/alien4_norm.png,0.6,resources/alien3_norm.png,0.4,TRUE,TRUE,2,0.111972816,purple,x,0.2604,alien4,TRUE,2,0.25233885,166,1,0.6,x,0.6934,0,284,284,284,1,0.3,0.7,0.4,0.6,TRUE,,,,,,,,,,,,,,,,,,,,,,,,,,,,,,,,,
GOSH_A4,2023-11-09_13h19.40.129,two_step_task_legacy,2022.2.4,Win32,59.86948452,23,learning,0,resources/alien3_norm.png,0.4,resources/alien4_norm.png,0.6,TRUE,TRUE,2,0.459397335,purple,x,0.0736,alien4,TRUE,2,0.056010632,167,1,0.6,m,0.6676,0,285,285,285,1,0.3,0.7,0.4,0.6,FALSE,,,,,,,,,,,,,,,,,,,,,,,,,,,,,,,,,
GOSH_A4,2023-11-09_13h19.40.129,two_step_task_legacy,2022.2.4,Win32,59.86948452,23,learning,0,resources/alien4_norm.png,0.6,resources/alien3_norm.png,0.4,TRUE,TRUE,2,0.587940207,purple,x,0.0392,alien4,TRUE,2,0.101356805,168,1,0.6,x,0.5067,0,286,286,286,1,0.3,0.7,0.4,0.6,TRUE,,,,,,,,,,,,,,,,,,,,,,,,,,,,,,,,,
GOSH_A4,2023-11-09_13h19.40.129,two_step_task_legacy,2022.2.4,Win32,59.86948452,23,learning,1,resources/alien2_norm.png,0.7,resources/alien1_norm.png,0.3,TRUE,TRUE,3,0.85847191,red,x,0.0005,alien1,TRUE,3,0.770311478,168,0,0.3,m,0.7086,0,287,287,287,1,0.3,0.7,0.4,0.6,TRUE,,,,,,,,,,,,,,,,,,,,,,,,,,,,,,,,,
GOSH_A4,2023-11-09_13h19.40.129,two_step_task_legacy,2022.2.4,Win32,59.86948452,23,learning,0,resources/alien3_norm.png,0.4,resources/alien4_norm.png,0.6,TRUE,TRUE,2,0.102887038,purple,x,0.2228,alien4,TRUE,2,0.084663094,169,1,0.6,m,0.4723,0,288,288,288,1,0.3,0.7,0.4,0.6,FALSE,,,,,,,,,,,,,,,,,,,,,,,,,,,,,,,,,
GOSH_A4,2023-11-09_13h19.40.129,two_step_task_legacy,2022.2.4,Win32,59.86948452,23,learning,1,resources/alien2_norm.png,0.7,resources/alien1_norm.png,0.3,TRUE,TRUE,3,0.751008488,red,x,0.1694,alien1,TRUE,2,0.000643949,170,1,0.3,m,0.4008,0,289,289,289,1,0.3,0.7,0.4,0.6,TRUE,,,,,,,,,,,,,,,,,,,,,,,,,,,,,,,,,
