participant,date,expName,psychopyVersion,OS,frameRate,payoff_list,phase,rare_transition,left_alien,left_probabilty,right_alien,right_probabilty,select_sp,show_alien,rocket_trans,rand_sp,planet,key_resp_exp.keys,key_resp_exp.rt,chosen_alien,select_alien,transmoney,rand_money,totalgold,trialgain,probs,key_resp_exp_alien.keys,key_resp_exp_alien.rt,loop_exp.thisRepN,loop_exp.thisTrialN,loop_exp.thisN,loop_exp.thisIndex,loop_exp.ran,p1,p2,p3,p4,flip_sides,static_probability_left,static_probability_right,key_resp_probe.keys,key_resp_probe.rt,accuracy,probe_loop.thisRepN,probe_loop.thisTrialN,probe_loop.thisN,probe_loop.thisIndex,probe_loop.ran,probe_la,probe_ra,key_resp.keys,key_resp.rt,slider.response,slider.rt,post_loop.thisRepN,post_loop.thisTrialN,post_loop.thisN,post_loop.thisIndex,post_loop.ran,text_up,pos_text_up,text_down,pos_img_left_up,left_up_img,right_up_img,left_down_img_1,left_down_img_2,right_down_img_1,right_down_img_2,size,show_slider
GOSH_A13,2023-11-10_12h57.09.254,two_step_task_legacy,2022.2.4,Win32,60.42661188,,,,,,,,,,,,,,,,,,,,,,,,,,,,,,,,,,,,,,,,,,,,,,,,,,,,,,,,,,,,,,,,,,
GOSH_A13,2023-11-10_12h57.09.254,two_step_task_legacy,2022.2.4,Win32,60.42661188,,,,,,,,,,,,,,,,,,,,,,,,,,,,,,,,,,,,,,,,,,,,,,,,,,,,,,,,,,,,,,,,,,
GOSH_A13,2023-11-10_12h57.09.254,two_step_task_legacy,2022.2.4,Win32,60.42661188,,,,,,,,,,,,,,,,,,,,,,,,,,,,,,,,,,,,,,,,,,,,,,,,,,,,,,,,,,,,,,,,,,
GOSH_A13,2023-11-10_12h57.09.254,two_step_task_legacy,2022.2.4,Win32,60.42661188,,,,,,,,,,,,,,,,,,,,,,,,,,,,,,,,,,,,,,,,,,,,,,,,,,,,,,,,,,,,,,,,,,
GOSH_A13,2023-11-10_12h57.09.254,two_step_task_legacy,2022.2.4,Win32,60.42661188,,,,,,,,,,,,,,,,,,,,,,,,,,,,,,,,,,,,,,,,,,,,,,,,,,,,,,,,,,,,,,,,,,
GOSH_A13,2023-11-10_12h57.09.254,two_step_task_legacy,2022.2.4,Win32,60.42661188,,,,,,,,,,,,,,,,,,,,,,,,,,,,,,,,,,,,,,,,,,,,,,,,,,,,,,,,,,,,,,,,,,
GOSH_A13,2023-11-10_12h57.09.254,two_step_task_legacy,2022.2.4,Win32,60.42661188,,,,,,,,,,,,,,,,,,,,,,,,,,,,,,,,,,,,,,,,,,,,,,,,,,,,,,,,,,,,,,,,,,
GOSH_A13,2023-11-10_12h57.09.254,two_step_task_legacy,2022.2.4,Win32,60.42661188,,,,,,,,,,,,,,,,,,,,,,,,,,,,,,,,,,,,,,,,,,,,,,,,,,,,,,,,,,,,,,,,,,
GOSH_A13,2023-11-10_12h57.09.254,two_step_task_legacy,2022.2.4,Win32,60.42661188,,,,,,,,,,,,,,,,,,,,,,,,,,,,,,,,,,,,,,,,,,,,,,,,,,,,,,,,,,,,,,,,,,
GOSH_A13,2023-11-10_12h57.09.254,two_step_task_legacy,2022.2.4,Win32,60.42661188,,,,,,,,,,,,,,,,,,,,,,,,,,,,,,,,,,,,,,,,,,,,,,,,,,,,,,,,,,,,,,,,,,
GOSH_A13,2023-11-10_12h57.09.254,two_step_task_legacy,2022.2.4,Win32,60.42661188,,,,,,,,,,,,,,,,,,,,,,,,,,,,,,,,,,,,,,,,,,,,,,,,,,,,,,,,,,,,,,,,,,
GOSH_A13,2023-11-10_12h57.09.254,two_step_task_legacy,2022.2.4,Win32,60.42661188,43,learning,0,resources/alien1_norm.png,0.592919234,resources/alien2_norm.png,0.725900905,TRUE,TRUE,3,0.220001309,red,m,2.2213,alien2,TRUE,3,0.949699054,0,0,0.725900905,m,1.3392,0,0,0,0,1,0.592919234,0.725900905,0.443858228,0.27950747,FALSE,,,,,,,,,,,,,,,,,,,,,,,,,,,,,,,,,
GOSH_A13,2023-11-10_12h57.09.254,two_step_task_legacy,2022.2.4,Win32,60.42661188,43,learning,0,resources/alien2_norm.png,0.744384228,resources/alien1_norm.png,0.59679033,TRUE,TRUE,3,0.352675148,red,m,1.5344,alien1,TRUE,2,0.299254167,1,1,0.59679033,m,0.8903,0,1,1,1,1,0.59679033,0.744384228,0.45423091,0.295972889,TRUE,,,,,,,,,,,,,,,,,,,,,,,,,,,,,,,,,
GOSH_A13,2023-11-10_12h57.09.254,two_step_task_legacy,2022.2.4,Win32,60.42661188,43,learning,1,resources/alien3_norm.png,0.455634511,resources/alien4_norm.png,0.31700386,TRUE,TRUE,2,0.804119689,purple,m,0.4429,alien4,TRUE,3,0.533854251,1,0,0.31700386,m,2.3682,0,2,2,2,1,0.60177345,0.733574025,0.455634511,0.31700386,FALSE,,,,,,,,,,,,,,,,,,,,,,,,,,,,,,,,,
GOSH_A13,2023-11-10_12h57.09.254,two_step_task_legacy,2022.2.4,Win32,60.42661188,43,learning,0,resources/alien2_norm.png,0.736493304,resources/alien1_norm.png,0.575786997,TRUE,TRUE,3,0.555943584,red,m,0.4775,alien1,TRUE,2,0.092298158,2,1,0.575786997,m,0.6721,0,3,3,3,1,0.575786997,0.736493304,0.471841934,0.31795339,TRUE,,,,,,,,,,,,,,,,,,,,,,,,,,,,,,,,,
GOSH_A13,2023-11-10_12h57.09.254,two_step_task_legacy,2022.2.4,Win32,60.42661188,43,learning,1,resources/alien1_norm.png,0.567847603,resources/alien2_norm.png,0.732422245,TRUE,TRUE,3,0.721565024,red,x,0.404,alien1,TRUE,2,0.239762374,3,1,0.567847603,x,1.023,0,4,4,4,1,0.567847603,0.732422245,0.442864037,0.314743689,FALSE,,,,,,,,,,,,,,,,,,,,,,,,,,,,,,,,,
GOSH_A13,2023-11-10_12h57.09.254,two_step_task_legacy,2022.2.4,Win32,60.42661188,43,learning,0,resources/alien3_norm.png,0.425542419,resources/alien4_norm.png,0.331932433,TRUE,TRUE,2,0.087188193,purple,x,0.306,alien3,TRUE,3,0.459504291,3,0,0.425542419,x,0.8773,0,5,5,5,1,0.613520007,0.719024184,0.425542419,0.331932433,FALSE,,,,,,,,,,,,,,,,,,,,,,,,,,,,,,,,,
GOSH_A13,2023-11-10_12h57.09.254,two_step_task_legacy,2022.2.4,Win32,60.42661188,43,learning,0,resources/alien3_norm.png,0.45882479,resources/alien4_norm.png,0.335203637,TRUE,TRUE,2,0.380534173,purple,x,1.2742,alien4,TRUE,3,0.351452506,3,0,0.335203637,m,1.1072,0,6,6,6,1,0.646413289,0.703346131,0.45882479,0.335203637,FALSE,,,,,,,,,,,,,,,,,,,,,,,,,,,,,,,,,
GOSH_A13,2023-11-10_12h57.09.254,two_step_task_legacy,2022.2.4,Win32,60.42661188,43,learning,1,resources/alien3_norm.png,0.470030307,resources/alien4_norm.png,0.317344228,TRUE,TRUE,2,0.875710111,purple,m,0.4345,alien3,TRUE,2,0.292610043,4,1,0.470030307,x,1.4091,0,7,7,7,1,0.656173784,0.720597765,0.470030307,0.317344228,FALSE,,,,,,,,,,,,,,,,,,,,,,,,,,,,,,,,,
GOSH_A13,2023-11-10_12h57.09.254,two_step_task_legacy,2022.2.4,Win32,60.42661188,43,learning,0,resources/alien2_norm.png,0.740934325,resources/alien1_norm.png,0.679642094,TRUE,TRUE,3,0.553343434,red,m,0.4833,alien1,TRUE,2,0.293528265,5,1,0.679642094,m,0.5217,0,8,8,8,1,0.679642094,0.740934325,0.484620776,0.274606094,TRUE,,,,,,,,,,,,,,,,,,,,,,,,,,,,,,,,,
GOSH_A13,2023-11-10_12h57.09.254,two_step_task_legacy,2022.2.4,Win32,60.42661188,43,learning,1,resources/alien4_norm.png,0.279361174,resources/alien3_norm.png,0.493984152,TRUE,TRUE,2,0.946340705,purple,m,0.2326,alien3,TRUE,2,0.052266682,6,1,0.493984152,m,1.4924,0,9,9,9,1,0.688180407,0.689489059,0.493984152,0.279361174,TRUE,,,,,,,,,,,,,,,,,,,,,,,,,,,,,,,,,
GOSH_A13,2023-11-10_12h57.09.254,two_step_task_legacy,2022.2.4,Win32,60.42661188,43,learning,0,resources/alien2_norm.png,0.672474435,resources/alien1_norm.png,0.722256697,TRUE,TRUE,3,0.140125735,red,m,0.2559,alien1,TRUE,2,0.533997494,7,1,0.722256697,m,0.4196,0,10,10,10,1,0.722256697,0.672474435,0.483038561,0.282942862,TRUE,,,,,,,,,,,,,,,,,,,,,,,,,,,,,,,,,
GOSH_A13,2023-11-10_12h57.09.254,two_step_task_legacy,2022.2.4,Win32,60.42661188,43,learning,0,resources/alien2_norm.png,0.692623887,resources/alien1_norm.png,0.684969653,TRUE,TRUE,3,0.340656398,red,m,0.2506,alien1,TRUE,2,0.399079052,8,1,0.684969653,m,0.3783,0,11,11,11,1,0.684969653,0.692623887,0.510853538,0.259019373,TRUE,,,,,,,,,,,,,,,,,,,,,,,,,,,,,,,,,
GOSH_A13,2023-11-10_12h57.09.254,two_step_task_legacy,2022.2.4,Win32,60.42661188,43,learning,0,resources/alien2_norm.png,0.715817289,resources/alien1_norm.png,0.659633046,TRUE,TRUE,3,0.460138472,red,m,0.233,alien1,TRUE,2,0.594216054,9,1,0.659633046,m,0.367,0,12,12,12,1,0.659633046,0.715817289,0.479761531,0.255717844,TRUE,,,,,,,,,,,,,,,,,,,,,,,,,,,,,,,,,
GOSH_A13,2023-11-10_12h57.09.254,two_step_task_legacy,2022.2.4,Win32,60.42661188,43,learning,0,resources/alien1_norm.png,0.640778901,resources/alien2_norm.png,0.746070273,TRUE,TRUE,3,0.376022405,red,m,0.2789,alien1,TRUE,2,0.091513507,10,1,0.640778901,x,0.4832,0,13,13,13,1,0.640778901,0.746070273,0.486310925,0.298984932,FALSE,,,,,,,,,,,,,,,,,,,,,,,,,,,,,,,,,
GOSH_A13,2023-11-10_12h57.09.254,two_step_task_legacy,2022.2.4,Win32,60.42661188,43,learning,0,resources/alien2_norm.png,0.745244975,resources/alien1_norm.png,0.609843847,TRUE,TRUE,3,0.126894634,red,m,0.2672,alien1,TRUE,3,0.898288944,10,0,0.609843847,m,0.4703,0,14,14,14,1,0.609843847,0.745244975,0.483221717,0.292136448,TRUE,,,,,,,,,,,,,,,,,,,,,,,,,,,,,,,,,
GOSH_A13,2023-11-10_12h57.09.254,two_step_task_legacy,2022.2.4,Win32,60.42661188,43,learning,0,resources/alien1_norm.png,0.647958318,resources/alien2_norm.png,0.742194192,TRUE,TRUE,3,0.688901718,red,m,0.2946,alien2,TRUE,3,0.945147233,10,0,0.742194192,m,0.5437,0,15,15,15,1,0.647958318,0.742194192,0.475561931,0.315615459,FALSE,,,,,,,,,,,,,,,,,,,,,,,,,,,,,,,,,
GOSH_A13,2023-11-10_12h57.09.254,two_step_task_legacy,2022.2.4,Win32,60.42661188,43,learning,0,resources/alien3_norm.png,0.453043104,resources/alien4_norm.png,0.348756417,TRUE,TRUE,2,0.632700548,purple,x,0.3999,alien3,TRUE,2,0.452502625,11,1,0.453043104,x,0.4659,0,16,16,16,1,0.645843171,0.723966215,0.453043104,0.348756417,FALSE,,,,,,,,,,,,,,,,,,,,,,,,,,,,,,,,,
GOSH_A13,2023-11-10_12h57.09.254,two_step_task_legacy,2022.2.4,Win32,60.42661188,43,learning,0,resources/alien4_norm.png,0.34175623,resources/alien3_norm.png,0.463953484,TRUE,TRUE,2,0.274952958,purple,x,0.259,alien3,TRUE,3,0.777099961,11,0,0.463953484,m,0.4925,0,17,17,17,1,0.692166841,0.722635815,0.463953484,0.34175623,TRUE,,,,,,,,,,,,,,,,,,,,,,,,,,,,,,,,,
GOSH_A13,2023-11-10_12h57.09.254,two_step_task_legacy,2022.2.4,Win32,60.42661188,43,learning,0,resources/alien4_norm.png,0.361794708,resources/alien3_norm.png,0.44983954,TRUE,TRUE,2,0.696573639,purple,x,0.3166,alien3,TRUE,3,0.496951585,11,0,0.44983954,m,0.4574,0,18,18,18,1,0.705363788,0.731280491,0.44983954,0.361794708,TRUE,,,,,,,,,,,,,,,,,,,,,,,,,,,,,,,,,
GOSH_A13,2023-11-10_12h57.09.254,two_step_task_legacy,2022.2.4,Win32,60.42661188,43,learning,1,resources/alien4_norm.png,0.373358192,resources/alien3_norm.png,0.432081966,TRUE,TRUE,2,0.740998917,purple,m,0.235,alien4,TRUE,3,0.827726611,11,0,0.373358192,x,0.9736,0,19,19,19,1,0.638524244,0.731469643,0.432081966,0.373358192,TRUE,,,,,,,,,,,,,,,,,,,,,,,,,,,,,,,,,
GOSH_A13,2023-11-10_12h57.09.254,two_step_task_legacy,2022.2.4,Win32,60.42661188,43,learning,0,resources/alien2_norm.png,0.722503558,resources/alien1_norm.png,0.6317315,TRUE,TRUE,3,0.56227921,red,m,0.3705,alien2,TRUE,2,0.116125495,12,1,0.722503558,x,0.6431,0,20,20,20,1,0.6317315,0.722503558,0.440889844,0.370049194,TRUE,,,,,,,,,,,,,,,,,,,,,,,,,,,,,,,,,
GOSH_A13,2023-11-10_12h57.09.254,two_step_task_legacy,2022.2.4,Win32,60.42661188,43,learning,0,resources/alien1_norm.png,0.644665474,resources/alien2_norm.png,0.721895684,TRUE,TRUE,3,0.204869825,red,m,0.2731,alien2,TRUE,3,0.84442448,12,0,0.721895684,m,0.4889,0,21,21,21,1,0.644665474,0.721895684,0.444949016,0.385190721,FALSE,,,,,,,,,,,,,,,,,,,,,,,,,,,,,,,,,
GOSH_A13,2023-11-10_12h57.09.254,two_step_task_legacy,2022.2.4,Win32,60.42661188,43,learning,0,resources/alien1_norm.png,0.666624831,resources/alien2_norm.png,0.705702366,TRUE,TRUE,3,0.669782552,red,m,0.2147,alien1,TRUE,3,0.835555035,12,0,0.666624831,x,0.4509,0,22,22,22,1,0.666624831,0.705702366,0.41870989,0.352113387,FALSE,,,,,,,,,,,,,,,,,,,,,,,,,,,,,,,,,
GOSH_A13,2023-11-10_12h57.09.254,two_step_task_legacy,2022.2.4,Win32,60.42661188,43,learning,1,resources/alien3_norm.png,0.465073071,resources/alien4_norm.png,0.307119567,TRUE,TRUE,2,0.813755355,purple,m,0.2364,alien4,TRUE,3,0.855254158,12,0,0.307119567,m,1.8188,0,23,23,23,1,0.664096591,0.678602803,0.465073071,0.307119567,FALSE,,,,,,,,,,,,,,,,,,,,,,,,,,,,,,,,,
GOSH_A13,2023-11-10_12h57.09.254,two_step_task_legacy,2022.2.4,Win32,60.42661188,43,learning,1,resources/alien4_norm.png,0.327636045,resources/alien3_norm.png,0.491099525,TRUE,TRUE,2,0.93065642,purple,m,0.4012,alien3,TRUE,2,0.204715252,13,1,0.491099525,m,1.43,0,24,24,24,1,0.680750687,0.666643436,0.491099525,0.327636045,TRUE,,,,,,,,,,,,,,,,,,,,,,,,,,,,,,,,,
GOSH_A13,2023-11-10_12h57.09.254,two_step_task_legacy,2022.2.4,Win32,60.42661188,43,learning,1,resources/alien3_norm.png,0.515332064,resources/alien4_norm.png,0.339488743,TRUE,TRUE,2,0.75778128,purple,m,0.2427,alien3,TRUE,2,0.245782351,14,1,0.515332064,x,0.6102,0,25,25,25,1,0.721158618,0.678938875,0.515332064,0.339488743,FALSE,,,,,,,,,,,,,,,,,,,,,,,,,,,,,,,,,
GOSH_A13,2023-11-10_12h57.09.254,two_step_task_legacy,2022.2.4,Win32,60.42661188,43,learning,1,resources/alien1_norm.png,0.726141219,resources/alien2_norm.png,0.688257877,TRUE,TRUE,3,0.9633956,red,x,0.2507,alien1,TRUE,2,0.594639458,15,1,0.726141219,x,1.544,0,26,26,26,1,0.726141219,0.688257877,0.536516343,0.306057792,FALSE,,,,,,,,,,,,,,,,,,,,,,,,,,,,,,,,,
GOSH_A13,2023-11-10_12h57.09.254,two_step_task_legacy,2022.2.4,Win32,60.42661188,43,learning,0,resources/alien3_norm.png,0.586460321,resources/alien4_norm.png,0.324762577,TRUE,TRUE,2,0.668041202,purple,x,0.2338,alien3,TRUE,3,0.995516277,15,0,0.586460321,x,0.6416,0,27,27,27,1,0.73348975,0.708654251,0.586460321,0.324762577,FALSE,,,,,,,,,,,,,,,,,,,,,,,,,,,,,,,,,
GOSH_A13,2023-11-10_12h57.09.254,two_step_task_legacy,2022.2.4,Win32,60.42661188,43,learning,1,resources/alien2_norm.png,0.695447607,resources/alien1_norm.png,0.741945791,TRUE,TRUE,3,0.890653097,red,x,0.2332,alien1,TRUE,2,0.47107713,16,1,0.741945791,m,1.0459,0,28,28,28,1,0.741945791,0.695447607,0.560037831,0.324394061,TRUE,,,,,,,,,,,,,,,,,,,,,,,,,,,,,,,,,
GOSH_A13,2023-11-10_12h57.09.254,two_step_task_legacy,2022.2.4,Win32,60.42661188,43,learning,0,resources/alien2_norm.png,0.647184722,resources/alien1_norm.png,0.741235567,TRUE,TRUE,3,0.615988494,red,m,0.2221,alien1,TRUE,3,0.995584739,16,0,0.741235567,m,0.3923,0,29,29,29,1,0.741235567,0.647184722,0.536509411,0.324567173,TRUE,,,,,,,,,,,,,,,,,,,,,,,,,,,,,,,,,
GOSH_A13,2023-11-10_12h57.09.254,two_step_task_legacy,2022.2.4,Win32,60.42661188,43,learning,0,resources/alien2_norm.png,0.682287617,resources/alien1_norm.png,0.711120899,TRUE,TRUE,3,0.605381843,red,m,0.2165,alien1,TRUE,2,0.281026976,17,1,0.711120899,m,0.3847,0,30,30,30,1,0.711120899,0.682287617,0.531370322,0.374347067,TRUE,,,,,,,,,,,,,,,,,,,,,,,,,,,,,,,,,
GOSH_A13,2023-11-10_12h57.09.254,two_step_task_legacy,2022.2.4,Win32,60.42661188,43,learning,0,resources/alien1_norm.png,0.703930664,resources/alien2_norm.png,0.670612165,TRUE,TRUE,3,0.55548338,red,m,0.2282,alien1,TRUE,2,0.118374267,18,1,0.703930664,x,0.4786,0,31,31,31,1,0.703930664,0.670612165,0.531256282,0.366194808,FALSE,,,,,,,,,,,,,,,,,,,,,,,,,,,,,,,,,
GOSH_A13,2023-11-10_12h57.09.254,two_step_task_legacy,2022.2.4,Win32,60.42661188,43,learning,0,resources/alien2_norm.png,0.676785204,resources/alien1_norm.png,0.747483385,TRUE,TRUE,3,0.49502254,red,m,0.2671,alien1,TRUE,2,0.460954915,19,1,0.747483385,m,0.3779,0,32,32,32,1,0.747483385,0.676785204,0.520215803,0.386285095,TRUE,,,,,,,,,,,,,,,,,,,,,,,,,,,,,,,,,
GOSH_A13,2023-11-10_12h57.09.254,two_step_task_legacy,2022.2.4,Win32,60.42661188,43,learning,0,resources/alien2_norm.png,0.641874978,resources/alien1_norm.png,0.74387237,TRUE,TRUE,3,0.031193383,red,m,0.2589,alien1,TRUE,2,0.486230141,20,1,0.74387237,m,0.5075,0,33,33,33,1,0.74387237,0.641874978,0.524958272,0.407380993,TRUE,,,,,,,,,,,,,,,,,,,,,,,,,,,,,,,,,
GOSH_A13,2023-11-10_12h57.09.254,two_step_task_legacy,2022.2.4,Win32,60.42661188,43,learning,0,resources/alien1_norm.png,0.73213969,resources/alien2_norm.png,0.647869521,TRUE,TRUE,3,0.51203942,red,m,0.2197,alien1,TRUE,2,0.071002355,21,1,0.73213969,x,0.423,0,34,34,34,1,0.73213969,0.647869521,0.501933636,0.430053027,FALSE,,,,,,,,,,,,,,,,,,,,,,,,,,,,,,,,,
GOSH_A13,2023-11-10_12h57.09.254,two_step_task_legacy,2022.2.4,Win32,60.42661188,43,learning,0,resources/alien1_norm.png,0.735960532,resources/alien2_norm.png,0.661804792,TRUE,TRUE,3,0.189400271,red,m,0.2713,alien1,TRUE,3,0.858146307,21,0,0.735960532,x,0.3791,0,35,35,35,1,0.735960532,0.661804792,0.485008195,0.408820591,FALSE,,,,,,,,,,,,,,,,,,,,,,,,,,,,,,,,,
GOSH_A13,2023-11-10_12h57.09.254,two_step_task_legacy,2022.2.4,Win32,60.42661188,43,learning,1,resources/alien3_norm.png,0.465983699,resources/alien4_norm.png,0.402459854,TRUE,TRUE,2,0.840695529,purple,m,0.1339,alien3,TRUE,2,0.044062141,22,1,0.465983699,x,1.0793,0,36,36,36,1,0.729661989,0.677064408,0.465983699,0.402459854,FALSE,,,,,,,,,,,,,,,,,,,,,,,,,,,,,,,,,
GOSH_A13,2023-11-10_12h57.09.254,two_step_task_legacy,2022.2.4,Win32,60.42661188,43,learning,0,resources/alien1_norm.png,0.707923169,resources/alien2_norm.png,0.652538123,TRUE,TRUE,3,0.604288134,red,m,0.2497,alien1,TRUE,3,0.93100661,22,0,0.707923169,x,0.4165,0,37,37,37,1,0.707923169,0.652538123,0.509954334,0.406162253,FALSE,,,,,,,,,,,,,,,,,,,,,,,,,,,,,,,,,
GOSH_A13,2023-11-10_12h57.09.254,two_step_task_legacy,2022.2.4,Win32,60.42661188,43,learning,0,resources/alien4_norm.png,0.433014543,resources/alien3_norm.png,0.53675196,TRUE,TRUE,2,0.074168134,purple,x,0.3163,alien3,TRUE,2,0.347814279,23,1,0.53675196,m,0.4826,0,38,38,38,1,0.694382959,0.673066329,0.53675196,0.433014543,TRUE,,,,,,,,,,,,,,,,,,,,,,,,,,,,,,,,,
GOSH_A13,2023-11-10_12h57.09.254,two_step_task_legacy,2022.2.4,Win32,60.42661188,43,learning,0,resources/alien4_norm.png,0.456735874,resources/alien3_norm.png,0.535677589,TRUE,TRUE,2,0.431415456,purple,x,0.2477,alien3,TRUE,3,0.785612582,23,0,0.535677589,m,0.451,0,39,39,39,1,0.686824957,0.662671924,0.535677589,0.456735874,TRUE,,,,,,,,,,,,,,,,,,,,,,,,,,,,,,,,,
GOSH_A13,2023-11-10_12h57.09.254,two_step_task_legacy,2022.2.4,Win32,60.42661188,43,learning,0,resources/alien3_norm.png,0.514353351,resources/alien4_norm.png,0.444802595,TRUE,TRUE,2,0.018246489,purple,x,0.2208,alien3,TRUE,2,0.093535644,24,1,0.514353351,x,0.6324,0,40,40,40,1,0.701252715,0.683582687,0.514353351,0.444802595,FALSE,,,,,,,,,,,,,,,,,,,,,,,,,,,,,,,,,
GOSH_A13,2023-11-10_12h57.09.254,two_step_task_legacy,2022.2.4,Win32,60.42661188,43,learning,0,resources/alien3_norm.png,0.529381359,resources/alien4_norm.png,0.474099865,TRUE,TRUE,2,0.663618532,purple,x,0.2502,alien3,TRUE,2,0.506050139,25,1,0.529381359,x,0.407,0,41,41,41,1,0.735883559,0.659710527,0.529381359,0.474099865,FALSE,,,,,,,,,,,,,,,,,,,,,,,,,,,,,,,,,
GOSH_A13,2023-11-10_12h57.09.254,two_step_task_legacy,2022.2.4,Win32,60.42661188,43,learning,1,resources/alien1_norm.png,0.698407408,resources/alien2_norm.png,0.656265655,TRUE,TRUE,3,0.85255813,red,x,0.2331,alien2,TRUE,2,0.332822807,26,1,0.656265655,m,1.6361,0,42,42,42,1,0.698407408,0.656265655,0.569051894,0.499578503,FALSE,,,,,,,,,,,,,,,,,,,,,,,,,,,,,,,,,
GOSH_A13,2023-11-10_12h57.09.254,two_step_task_legacy,2022.2.4,Win32,60.42661188,43,learning,0,resources/alien4_norm.png,0.517139904,resources/alien3_norm.png,0.558922212,TRUE,TRUE,2,0.280983899,purple,x,0.2339,alien3,TRUE,2,0.166594412,27,1,0.558922212,m,0.7059,0,43,43,43,1,0.7442163,0.635050852,0.558922212,0.517139904,TRUE,,,,,,,,,,,,,,,,,,,,,,,,,,,,,,,,,
GOSH_A13,2023-11-10_12h57.09.254,two_step_task_legacy,2022.2.4,Win32,60.42661188,43,learning,0,resources/alien4_norm.png,0.563824608,resources/alien3_norm.png,0.608414695,TRUE,TRUE,2,0.342501072,purple,x,0.2116,alien3,TRUE,2,0.162520329,28,1,0.608414695,m,0.451,0,44,44,44,1,0.747567615,0.608699053,0.608414695,0.563824608,TRUE,,,,,,,,,,,,,,,,,,,,,,,,,,,,,,,,,
GOSH_A13,2023-11-10_12h57.09.254,two_step_task_legacy,2022.2.4,Win32,60.42661188,43,learning,0,resources/alien4_norm.png,0.577261292,resources/alien3_norm.png,0.592031585,TRUE,TRUE,2,0.437163361,purple,x,0.1395,alien3,TRUE,2,0.39855136,29,1,0.592031585,m,0.4499,0,45,45,45,1,0.732850337,0.616463301,0.592031585,0.577261292,TRUE,,,,,,,,,,,,,,,,,,,,,,,,,,,,,,,,,
GOSH_A13,2023-11-10_12h57.09.254,two_step_task_legacy,2022.2.4,Win32,60.42661188,43,learning,0,resources/alien4_norm.png,0.616425469,resources/alien3_norm.png,0.586579464,TRUE,TRUE,2,0.60456104,purple,x,0.2341,alien3,TRUE,2,0.27611312,30,1,0.586579464,m,0.3954,0,46,46,46,1,0.715828642,0.648648698,0.586579464,0.616425469,TRUE,,,,,,,,,,,,,,,,,,,,,,,,,,,,,,,,,
GOSH_A13,2023-11-10_12h57.09.254,two_step_task_legacy,2022.2.4,Win32,60.42661188,43,learning,0,resources/alien4_norm.png,0.613264448,resources/alien3_norm.png,0.570981347,TRUE,TRUE,2,0.315346783,purple,x,0.2047,alien3,TRUE,2,0.335635813,31,1,0.570981347,m,0.4394,0,47,47,47,1,0.701654265,0.648684771,0.570981347,0.613264448,TRUE,,,,,,,,,,,,,,,,,,,,,,,,,,,,,,,,,
GOSH_A13,2023-11-10_12h57.09.254,two_step_task_legacy,2022.2.4,Win32,60.42661188,43,learning,0,resources/alien3_norm.png,0.623729858,resources/alien4_norm.png,0.633249326,TRUE,TRUE,2,0.497543034,purple,x,0.2332,alien4,TRUE,3,0.642672367,31,0,0.633249326,m,0.3346,0,48,48,48,1,0.732315949,0.628861012,0.623729858,0.633249326,FALSE,,,,,,,,,,,,,,,,,,,,,,,,,,,,,,,,,
GOSH_A13,2023-11-10_12h57.09.254,two_step_task_legacy,2022.2.4,Win32,60.42661188,43,learning,0,resources/alien4_norm.png,0.647257539,resources/alien3_norm.png,0.63551621,TRUE,TRUE,2,0.259904814,purple,x,0.206,alien3,TRUE,2,0.17001257,32,1,0.63551621,m,0.45,0,49,49,49,1,0.743730679,0.568101573,0.63551621,0.647257539,TRUE,,,,,,,,,,,,,,,,,,,,,,,,,,,,,,,,,
GOSH_A13,2023-11-10_12h57.09.254,two_step_task_legacy,2022.2.4,Win32,60.42661188,43,learning,0,resources/alien3_norm.png,0.591204146,resources/alien4_norm.png,0.709977629,TRUE,TRUE,2,0.108733708,purple,x,0.251,alien3,TRUE,2,0.173136247,33,1,0.591204146,x,0.4321,0,50,50,50,1,0.742405846,0.572548826,0.591204146,0.709977629,FALSE,,,,,,,,,,,,,,,,,,,,,,,,,,,,,,,,,
GOSH_A13,2023-11-10_12h57.09.254,two_step_task_legacy,2022.2.4,Win32,60.42661188,43,learning,0,resources/alien4_norm.png,0.744945783,resources/alien3_norm.png,0.575730319,TRUE,TRUE,2,0.289749204,purple,x,0.2666,alien3,TRUE,2,0.121791062,34,1,0.575730319,m,0.5176,0,51,51,51,1,0.731656858,0.573059605,0.575730319,0.744945783,TRUE,,,,,,,,,,,,,,,,,,,,,,,,,,,,,,,,,
GOSH_A13,2023-11-10_12h57.09.254,two_step_task_legacy,2022.2.4,Win32,60.42661188,43,learning,0,resources/alien3_norm.png,0.559049285,resources/alien4_norm.png,0.725062463,TRUE,TRUE,2,0.541445717,purple,x,0.2329,alien3,TRUE,2,0.34927187,35,1,0.559049285,x,0.4343,0,52,52,52,1,0.722202375,0.60094317,0.559049285,0.725062463,FALSE,,,,,,,,,,,,,,,,,,,,,,,,,,,,,,,,,
GOSH_A13,2023-11-10_12h57.09.254,two_step_task_legacy,2022.2.4,Win32,60.42661188,43,learning,1,resources/alien2_norm.png,0.616272459,resources/alien1_norm.png,0.747378689,TRUE,TRUE,3,0.878580594,red,x,0.2315,alien1,TRUE,2,0.726977827,36,1,0.747378689,m,1.1224,0,53,53,53,1,0.747378689,0.616272459,0.57552337,0.745893196,TRUE,,,,,,,,,,,,,,,,,,,,,,,,,,,,,,,,,
GOSH_A13,2023-11-10_12h57.09.254,two_step_task_legacy,2022.2.4,Win32,60.42661188,43,learning,1,resources/alien1_norm.png,0.685531181,resources/alien2_norm.png,0.603674478,TRUE,TRUE,3,0.990050632,red,x,0.234,alien1,TRUE,2,0.677055706,37,1,0.685531181,x,0.6285,0,54,54,54,1,0.685531181,0.603674478,0.596085384,0.740868649,FALSE,,,,,,,,,,,,,,,,,,,,,,,,,,,,,,,,,
GOSH_A13,2023-11-10_12h57.09.254,two_step_task_legacy,2022.2.4,Win32,60.42661188,43,learning,1,resources/alien4_norm.png,0.724326154,resources/alien3_norm.png,0.577550956,TRUE,TRUE,2,0.920427529,purple,m,0.2507,alien3,TRUE,3,0.976776688,37,0,0.577550956,m,0.5699,0,55,55,55,1,0.688074556,0.625850557,0.577550956,0.724326154,TRUE,,,,,,,,,,,,,,,,,,,,,,,,,,,,,,,,,
GOSH_A13,2023-11-10_12h57.09.254,two_step_task_legacy,2022.2.4,Win32,60.42661188,43,learning,0,resources/alien1_norm.png,0.663246753,resources/alien2_norm.png,0.617190689,TRUE,TRUE,3,0.687258571,red,m,0.2233,alien1,TRUE,2,0.360828166,38,1,0.663246753,x,0.4325,0,56,56,56,1,0.663246753,0.617190689,0.584079294,0.728943976,FALSE,,,,,,,,,,,,,,,,,,,,,,,,,,,,,,,,,
GOSH_A13,2023-11-10_12h57.09.254,two_step_task_legacy,2022.2.4,Win32,60.42661188,43,learning,0,resources/alien1_norm.png,0.648444122,resources/alien2_norm.png,0.611121997,TRUE,TRUE,3,0.133245089,red,m,0.2338,alien1,TRUE,2,0.431067713,39,1,0.648444122,x,0.4427,0,57,57,57,1,0.648444122,0.611121997,0.578067357,0.749481486,FALSE,,,,,,,,,,,,,,,,,,,,,,,,,,,,,,,,,
GOSH_A13,2023-11-10_12h57.09.254,two_step_task_legacy,2022.2.4,Win32,60.42661188,43,learning,0,resources/alien1_norm.png,0.676622776,resources/alien2_norm.png,0.625101394,TRUE,TRUE,3,0.444514542,red,m,0.2389,alien1,TRUE,3,0.830311512,39,0,0.676622776,x,0.3841,0,58,58,58,1,0.676622776,0.625101394,0.598288486,0.721493407,FALSE,,,,,,,,,,,,,,,,,,,,,,,,,,,,,,,,,
GOSH_A13,2023-11-10_12h57.09.254,two_step_task_legacy,2022.2.4,Win32,60.42661188,43,learning,0,resources/alien1_norm.png,0.689847488,resources/alien2_norm.png,0.665800562,TRUE,TRUE,3,0.030325012,red,m,0.188,alien1,TRUE,3,0.947234765,39,0,0.689847488,x,0.3725,0,59,59,59,1,0.689847488,0.665800562,0.557855925,0.714889988,FALSE,,,,,,,,,,,,,,,,,,,,,,,,,,,,,,,,,
GOSH_A13,2023-11-10_12h57.09.254,two_step_task_legacy,2022.2.4,Win32,60.42661188,43,learning,1,resources/alien1_norm.png,0.717720941,resources/alien2_norm.png,0.648669251,TRUE,TRUE,3,0.716241033,red,x,0.2007,alien1,TRUE,2,0.318281898,40,1,0.717720941,x,0.6494,0,60,60,60,1,0.717720941,0.648669251,0.531914095,0.6693347,FALSE,,,,,,,,,,,,,,,,,,,,,,,,,,,,,,,,,
GOSH_A13,2023-11-10_12h57.09.254,two_step_task_legacy,2022.2.4,Win32,60.42661188,43,learning,0,resources/alien2_norm.png,0.646860561,resources/alien1_norm.png,0.661610946,TRUE,TRUE,3,0.364542929,red,m,0.4509,alien1,TRUE,3,0.716861931,40,0,0.661610946,m,0.5553,0,61,61,61,1,0.661610946,0.646860561,0.510276235,0.679727111,TRUE,,,,,,,,,,,,,,,,,,,,,,,,,,,,,,,,,
GOSH_A13,2023-11-10_12h57.09.254,two_step_task_legacy,2022.2.4,Win32,60.42661188,43,learning,1,resources/alien1_norm.png,0.656145255,resources/alien2_norm.png,0.627004415,TRUE,TRUE,3,0.902029282,red,x,0.2165,alien1,TRUE,2,0.473398227,41,1,0.656145255,x,0.534,0,62,62,62,1,0.656145255,0.627004415,0.49869813,0.695042862,FALSE,,,,,,,,,,,,,,,,,,,,,,,,,,,,,,,,,
GOSH_A13,2023-11-10_12h57.09.254,two_step_task_legacy,2022.2.4,Win32,60.42661188,43,learning,0,resources/alien4_norm.png,0.72246338,resources/alien3_norm.png,0.54503642,TRUE,TRUE,2,0.350473616,purple,x,0.2499,alien3,TRUE,3,0.872374726,41,0,0.54503642,m,0.4871,0,63,63,63,1,0.630791729,0.629113125,0.54503642,0.72246338,TRUE,,,,,,,,,,,,,,,,,,,,,,,,,,,,,,,,,
GOSH_A13,2023-11-10_12h57.09.254,two_step_task_legacy,2022.2.4,Win32,60.42661188,43,learning,0,resources/alien4_norm.png,0.700523395,resources/alien3_norm.png,0.543735631,TRUE,TRUE,2,0.074717722,purple,x,0.2227,alien3,TRUE,3,0.879046223,41,0,0.543735631,m,0.3831,0,64,64,64,1,0.612540457,0.65370092,0.543735631,0.700523395,TRUE,,,,,,,,,,,,,,,,,,,,,,,,,,,,,,,,,
GOSH_A13,2023-11-10_12h57.09.254,two_step_task_legacy,2022.2.4,Win32,60.42661188,43,learning,1,resources/alien2_norm.png,0.683022062,resources/alien1_norm.png,0.59867619,TRUE,TRUE,3,0.851501366,red,x,0.2192,alien2,TRUE,2,0.55045625,42,1,0.683022062,x,0.689,0,65,65,65,1,0.59867619,0.683022062,0.518545963,0.697685388,TRUE,,,,,,,,,,,,,,,,,,,,,,,,,,,,,,,,,
GOSH_A13,2023-11-10_12h57.09.254,two_step_task_legacy,2022.2.4,Win32,60.42661188,43,learning,0,resources/alien1_norm.png,0.625425207,resources/alien2_norm.png,0.674654184,TRUE,TRUE,3,0.503806214,red,m,0.2392,alien2,TRUE,3,0.683429436,42,0,0.674654184,m,0.4602,0,66,66,66,1,0.625425207,0.674654184,0.508248899,0.693832384,FALSE,,,,,,,,,,,,,,,,,,,,,,,,,,,,,,,,,
GOSH_A13,2023-11-10_12h57.09.254,two_step_task_legacy,2022.2.4,Win32,60.42661188,43,learning,1,resources/alien4_norm.png,0.675420829,resources/alien3_norm.png,0.525062901,TRUE,TRUE,2,0.758886567,purple,m,0.2067,alien4,TRUE,2,0.494569668,43,1,0.675420829,x,1.2333,0,67,67,67,1,0.655675286,0.701507056,0.525062901,0.675420829,TRUE,,,,,,,,,,,,,,,,,,,,,,,,,,,,,,,,,
GOSH_A13,2023-11-10_12h57.09.254,two_step_task_legacy,2022.2.4,Win32,60.42661188,43,learning,0,resources/alien3_norm.png,0.551839449,resources/alien4_norm.png,0.642448274,TRUE,TRUE,2,0.20201952,purple,x,0.2389,alien4,TRUE,2,0.105681579,44,1,0.642448274,m,0.4179,0,68,68,68,1,0.637758686,0.67166996,0.551839449,0.642448274,FALSE,,,,,,,,,,,,,,,,,,,,,,,,,,,,,,,,,
GOSH_A13,2023-11-10_12h57.09.254,two_step_task_legacy,2022.2.4,Win32,60.42661188,43,learning,0,resources/alien3_norm.png,0.548248453,resources/alien4_norm.png,0.640383184,TRUE,TRUE,2,0.083156972,purple,x,0.2179,alien4,TRUE,3,0.762662745,44,0,0.640383184,m,0.4663,0,69,69,69,1,0.671744386,0.647407293,0.548248453,0.640383184,FALSE,,,,,,,,,,,,,,,,,,,,,,,,,,,,,,,,,
GOSH_A13,2023-11-10_12h57.09.254,two_step_task_legacy,2022.2.4,Win32,60.42661188,43,learning,1,resources/alien1_norm.png,0.717480766,resources/alien2_norm.png,0.636657553,TRUE,TRUE,3,0.976821086,red,x,0.1813,alien2,TRUE,2,0.506906238,45,1,0.636657553,m,0.761,0,70,70,70,1,0.717480766,0.636657553,0.55259829,0.599602124,FALSE,,,,,,,,,,,,,,,,,,,,,,,,,,,,,,,,,
GOSH_A13,2023-11-10_12h57.09.254,two_step_task_legacy,2022.2.4,Win32,60.42661188,43,learning,0,resources/alien3_norm.png,0.582043005,resources/alien4_norm.png,0.607966578,TRUE,TRUE,2,0.504498837,purple,x,0.2337,alien4,TRUE,2,0.096340668,46,1,0.607966578,m,0.8277,0,71,71,71,1,0.700684726,0.636086446,0.582043005,0.607966578,FALSE,,,,,,,,,,,,,,,,,,,,,,,,,,,,,,,,,
GOSH_A13,2023-11-10_12h57.09.254,two_step_task_legacy,2022.2.4,Win32,60.42661188,43,learning,1,resources/alien2_norm.png,0.63923175,resources/alien1_norm.png,0.668092692,TRUE,TRUE,3,0.997382093,red,x,0.1707,alien2,TRUE,2,0.502741743,47,1,0.63923175,x,0.5825,0,72,72,72,1,0.668092692,0.63923175,0.596964849,0.645982736,TRUE,,,,,,,,,,,,,,,,,,,,,,,,,,,,,,,,,
GOSH_A13,2023-11-10_12h57.09.254,two_step_task_legacy,2022.2.4,Win32,60.42661188,43,learning,0,resources/alien4_norm.png,0.611402388,resources/alien3_norm.png,0.599337874,TRUE,TRUE,2,0.475127819,purple,x,0.2332,alien4,TRUE,3,0.787147306,47,0,0.611402388,x,0.7873,0,73,73,73,1,0.686325338,0.660846117,0.599337874,0.611402388,TRUE,,,,,,,,,,,,,,,,,,,,,,,,,,,,,,,,,
GOSH_A13,2023-11-10_12h57.09.254,two_step_task_legacy,2022.2.4,Win32,60.42661188,43,learning,0,resources/alien4_norm.png,0.578757794,resources/alien3_norm.png,0.584931769,TRUE,TRUE,2,0.380368449,purple,x,0.2191,alien4,TRUE,2,0.040332155,48,1,0.578757794,x,0.5396,0,74,74,74,1,0.681522799,0.63603781,0.584931769,0.578757794,TRUE,,,,,,,,,,,,,,,,,,,,,,,,,,,,,,,,,
GOSH_A13,2023-11-10_12h57.09.254,two_step_task_legacy,2022.2.4,Win32,60.42661188,43,learning,0,resources/alien3_norm.png,0.58633745,resources/alien4_norm.png,0.583999801,TRUE,TRUE,2,0.388979797,purple,x,0.2295,alien4,TRUE,2,0.45921625,49,1,0.583999801,m,0.8176,0,75,75,75,1,0.694546121,0.668013482,0.58633745,0.583999801,FALSE,,,,,,,,,,,,,,,,,,,,,,,,,,,,,,,,,
GOSH_A13,2023-11-10_12h57.09.254,two_step_task_legacy,2022.2.4,Win32,60.42661188,43,learning,1,resources/alien1_norm.png,0.688428203,resources/alien2_norm.png,0.670972145,TRUE,TRUE,3,0.949083316,red,x,0.0939,alien2,TRUE,3,0.784935273,49,0,0.670972145,m,0.656,0,76,76,76,1,0.688428203,0.670972145,0.618572647,0.58256071,FALSE,,,,,,,,,,,,,,,,,,,,,,,,,,,,,,,,,
GOSH_A13,2023-11-10_12h57.09.254,two_step_task_legacy,2022.2.4,Win32,60.42661188,43,learning,1,resources/alien1_norm.png,0.684514858,resources/alien2_norm.png,0.69222779,TRUE,TRUE,3,0.725086989,red,x,0.1838,alien2,TRUE,3,0.755057894,49,0,0.69222779,m,0.5903,0,77,77,77,1,0.684514858,0.69222779,0.611596499,0.567633367,FALSE,,,,,,,,,,,,,,,,,,,,,,,,,,,,,,,,,
GOSH_A13,2023-11-10_12h57.09.254,two_step_task_legacy,2022.2.4,Win32,60.42661188,43,learning,1,resources/alien2_norm.png,0.744148077,resources/alien1_norm.png,0.648201548,TRUE,TRUE,3,0.833845815,red,x,0.0695,alien1,TRUE,2,0.225176475,50,1,0.648201548,m,0.6346,0,78,78,78,1,0.648201548,0.744148077,0.616008699,0.583935421,TRUE,,,,,,,,,,,,,,,,,,,,,,,,,,,,,,,,,
GOSH_A13,2023-11-10_12h57.09.254,two_step_task_legacy,2022.2.4,Win32,60.42661188,43,learning,0,resources/alien4_norm.png,0.552496533,resources/alien3_norm.png,0.64486417,TRUE,TRUE,2,0.5807206,purple,x,0.2373,alien4,TRUE,3,0.764033846,50,0,0.552496533,x,0.8048,0,79,79,79,1,0.635827969,0.721433206,0.64486417,0.552496533,TRUE,,,,,,,,,,,,,,,,,,,,,,,,,,,,,,,,,
GOSH_A13,2023-11-10_12h57.09.254,two_step_task_legacy,2022.2.4,Win32,60.42661188,43,learning,1,resources/alien2_norm.png,0.676189685,resources/alien1_norm.png,0.673456106,TRUE,TRUE,3,0.776518651,red,x,0.1663,alien1,TRUE,2,0.333614864,51,1,0.673456106,m,0.8962,0,80,80,80,1,0.673456106,0.676189685,0.647788484,0.521841309,TRUE,,,,,,,,,,,,,,,,,,,,,,,,,,,,,,,,,
GOSH_A13,2023-11-10_12h57.09.254,two_step_task_legacy,2022.2.4,Win32,60.42661188,43,learning,1,resources/alien1_norm.png,0.689133456,resources/alien2_norm.png,0.665185929,TRUE,TRUE,3,0.717952626,red,x,0.2945,alien1,TRUE,2,0.258634165,52,1,0.689133456,x,0.5102,0,81,81,81,1,0.689133456,0.665185929,0.685354512,0.527047195,FALSE,,,,,,,,,,,,,,,,,,,,,,,,,,,,,,,,,
GOSH_A13,2023-11-10_12h57.09.254,two_step_task_legacy,2022.2.4,Win32,60.42661188,43,learning,0,resources/alien2_norm.png,0.698886555,resources/alien1_norm.png,0.706821286,TRUE,TRUE,3,0.187524053,red,m,0.2175,alien1,TRUE,2,0.397142779,53,1,0.706821286,m,0.4063,0,82,82,82,1,0.706821286,0.698886555,0.729212051,0.536142419,TRUE,,,,,,,,,,,,,,,,,,,,,,,,,,,,,,,,,
GOSH_A13,2023-11-10_12h57.09.254,two_step_task_legacy,2022.2.4,Win32,60.42661188,43,learning,0,resources/alien2_norm.png,0.696312699,resources/alien1_norm.png,0.695989226,TRUE,TRUE,3,0.314788463,red,m,0.2389,alien1,TRUE,2,0.292905986,54,1,0.695989226,m,0.4624,0,83,83,83,1,0.695989226,0.696312699,0.743470703,0.523815865,TRUE,,,,,,,,,,,,,,,,,,,,,,,,,,,,,,,,,
GOSH_A13,2023-11-10_12h57.09.254,two_step_task_legacy,2022.2.4,Win32,60.42661188,43,learning,0,resources/alien2_norm.png,0.649733708,resources/alien1_norm.png,0.734701173,TRUE,TRUE,3,0.297601502,red,m,0.2434,alien1,TRUE,2,0.531748361,55,1,0.734701173,m,0.3492,0,84,84,84,1,0.734701173,0.649733708,0.740120038,0.562465929,TRUE,,,,,,,,,,,,,,,,,,,,,,,,,,,,,,,,,
GOSH_A13,2023-11-10_12h57.09.254,two_step_task_legacy,2022.2.4,Win32,60.42661188,43,learning,0,resources/alien2_norm.png,0.614575836,resources/alien1_norm.png,0.685639988,TRUE,TRUE,3,0.63704269,red,m,0.2329,alien1,TRUE,2,0.229717263,56,1,0.685639988,m,0.4122,0,85,85,85,1,0.685639988,0.614575836,0.747459119,0.560395165,TRUE,,,,,,,,,,,,,,,,,,,,,,,,,,,,,,,,,
GOSH_A13,2023-11-10_12h57.09.254,two_step_task_legacy,2022.2.4,Win32,60.42661188,43,learning,1,resources/alien4_norm.png,0.553950792,resources/alien3_norm.png,0.739747496,TRUE,TRUE,2,0.771568699,purple,m,0.2674,alien4,TRUE,3,0.624629781,56,0,0.553950792,x,0.927,0,86,86,86,1,0.747269927,0.635889034,0.739747496,0.553950792,TRUE,,,,,,,,,,,,,,,,,,,,,,,,,,,,,,,,,
GOSH_A13,2023-11-10_12h57.09.254,two_step_task_legacy,2022.2.4,Win32,60.42661188,43,learning,0,resources/alien2_norm.png,0.615434995,resources/alien1_norm.png,0.723611405,TRUE,TRUE,3,0.497650998,red,m,0.2537,alien1,TRUE,2,0.589220698,57,1,0.723611405,m,0.6386,0,87,87,87,1,0.723611405,0.615434995,0.720528232,0.540800492,TRUE,,,,,,,,,,,,,,,,,,,,,,,,,,,,,,,,,
GOSH_A13,2023-11-10_12h57.09.254,two_step_task_legacy,2022.2.4,Win32,60.42661188,43,learning,0,resources/alien2_norm.png,0.617571559,resources/alien1_norm.png,0.733565483,TRUE,TRUE,3,0.57535666,red,m,0.2598,alien1,TRUE,2,0.447708066,58,1,0.733565483,m,0.4675,0,88,88,88,1,0.733565483,0.617571559,0.720139582,0.552648518,TRUE,,,,,,,,,,,,,,,,,,,,,,,,,,,,,,,,,
GOSH_A13,2023-11-10_12h57.09.254,two_step_task_legacy,2022.2.4,Win32,60.42661188,43,learning,0,resources/alien1_norm.png,0.716799535,resources/alien2_norm.png,0.62032434,TRUE,TRUE,3,0.668411171,red,m,0.1787,alien1,TRUE,2,0.401888936,59,1,0.716799535,x,0.5778,0,89,89,89,1,0.716799535,0.62032434,0.710865526,0.525233651,FALSE,,,,,,,,,,,,,,,,,,,,,,,,,,,,,,,,,
GOSH_A13,2023-11-10_12h57.09.254,two_step_task_legacy,2022.2.4,Win32,60.42661188,43,learning,0,resources/alien1_norm.png,0.697708351,resources/alien2_norm.png,0.592138281,TRUE,TRUE,3,0.126332513,red,m,0.2545,alien1,TRUE,3,0.970633596,59,0,0.697708351,x,0.4673,0,90,90,90,1,0.697708351,0.592138281,0.707326247,0.477030298,FALSE,,,,,,,,,,,,,,,,,,,,,,,,,,,,,,,,,
GOSH_A13,2023-11-10_12h57.09.254,two_step_task_legacy,2022.2.4,Win32,60.42661188,43,learning,0,resources/alien1_norm.png,0.656811595,resources/alien2_norm.png,0.578162809,TRUE,TRUE,3,0.470322207,red,m,0.459,alien2,TRUE,2,0.004316628,60,1,0.578162809,m,0.4063,0,91,91,91,1,0.656811595,0.578162809,0.693235307,0.485490214,FALSE,,,,,,,,,,,,,,,,,,,,,,,,,,,,,,,,,
GOSH_A13,2023-11-10_12h57.09.254,two_step_task_legacy,2022.2.4,Win32,60.42661188,43,learning,0,resources/alien3_norm.png,0.702752807,resources/alien4_norm.png,0.435668915,TRUE,TRUE,2,0.630014997,purple,x,0.3708,alien3,TRUE,2,0.203132698,61,1,0.702752807,x,0.4757,0,92,92,92,1,0.672837186,0.565150917,0.702752807,0.435668915,FALSE,,,,,,,,,,,,,,,,,,,,,,,,,,,,,,,,,
GOSH_A13,2023-11-10_12h57.09.254,two_step_task_legacy,2022.2.4,Win32,60.42661188,43,learning,1,resources/alien1_norm.png,0.676148976,resources/alien2_norm.png,0.529168175,TRUE,TRUE,3,0.793027564,red,x,0.2123,alien1,TRUE,2,0.12530826,62,1,0.676148976,x,0.6584,0,93,93,93,1,0.676148976,0.529168175,0.651971234,0.460123955,FALSE,,,,,,,,,,,,,,,,,,,,,,,,,,,,,,,,,
GOSH_A13,2023-11-10_12h57.09.254,two_step_task_legacy,2022.2.4,Win32,60.42661188,43,learning,0,resources/alien3_norm.png,0.666368314,resources/alien4_norm.png,0.462021783,TRUE,TRUE,2,0.20357643,purple,x,0.2075,alien3,TRUE,2,0.146034383,63,1,0.666368314,x,1.2444,0,94,94,94,1,0.635695198,0.550348922,0.666368314,0.462021783,FALSE,,,,,,,,,,,,,,,,,,,,,,,,,,,,,,,,,
GOSH_A13,2023-11-10_12h57.09.254,two_step_task_legacy,2022.2.4,Win32,60.42661188,43,learning,0,resources/alien4_norm.png,0.464566239,resources/alien3_norm.png,0.675864002,TRUE,TRUE,2,0.417452989,purple,x,0.2049,alien3,TRUE,2,0.102750736,64,1,0.675864002,m,0.5324,0,95,95,95,1,0.64731031,0.540740978,0.675864002,0.464566239,TRUE,,,,,,,,,,,,,,,,,,,,,,,,,,,,,,,,,
GOSH_A13,2023-11-10_12h57.09.254,two_step_task_legacy,2022.2.4,Win32,60.42661188,43,learning,0,resources/alien4_norm.png,0.457390436,resources/alien3_norm.png,0.681668623,TRUE,TRUE,2,0.508583848,purple,x,0.1816,alien3,TRUE,3,0.862250002,64,0,0.681668623,m,0.4166,0,96,96,96,1,0.616107931,0.470510182,0.681668623,0.457390436,TRUE,,,,,,,,,,,,,,,,,,,,,,,,,,,,,,,,,
GOSH_A13,2023-11-10_12h57.09.254,two_step_task_legacy,2022.2.4,Win32,60.42661188,43,learning,0,resources/alien3_norm.png,0.680331253,resources/alien4_norm.png,0.515938065,TRUE,TRUE,2,0.223774243,purple,x,0.183,alien3,TRUE,3,0.857362776,64,0,0.680331253,x,0.5078,0,97,97,97,1,0.649745482,0.470491496,0.680331253,0.515938065,FALSE,,,,,,,,,,,,,,,,,,,,,,,,,,,,,,,,,
GOSH_A13,2023-11-10_12h57.09.254,two_step_task_legacy,2022.2.4,Win32,60.42661188,43,learning,0,resources/alien2_norm.png,0.458699425,resources/alien1_norm.png,0.66691481,TRUE,TRUE,3,0.529205727,red,m,0.1998,alien1,TRUE,2,0.113750607,65,1,0.66691481,m,0.4657,0,98,98,98,1,0.66691481,0.458699425,0.673122691,0.481141694,TRUE,,,,,,,,,,,,,,,,,,,,,,,,,,,,,,,,,
GOSH_A13,2023-11-10_12h57.09.254,two_step_task_legacy,2022.2.4,Win32,60.42661188,43,learning,0,resources/alien2_norm.png,0.440355987,resources/alien1_norm.png,0.670163,TRUE,TRUE,3,0.09616989,red,m,0.2,alien1,TRUE,3,0.857692822,65,0,0.670163,m,0.3726,0,99,99,99,1,0.670163,0.440355987,0.670114402,0.452733412,TRUE,,,,,,,,,,,,,,,,,,,,,,,,,,,,,,,,,
GOSH_A13,2023-11-10_12h57.09.254,two_step_task_legacy,2022.2.4,Win32,60.42661188,43,learning,0,resources/alien2_norm.png,0.410336414,resources/alien1_norm.png,0.662758721,TRUE,TRUE,3,0.044384334,red,m,0.1964,alien1,TRUE,2,0.515571752,66,1,0.662758721,m,0.3458,0,100,100,100,1,0.662758721,0.410336414,0.642860081,0.461700993,TRUE,,,,,,,,,,,,,,,,,,,,,,,,,,,,,,,,,
GOSH_A13,2023-11-10_12h57.09.254,two_step_task_legacy,2022.2.4,Win32,60.42661188,43,learning,1,resources/alien3_norm.png,0.646010365,resources/alien4_norm.png,0.454211483,TRUE,TRUE,2,0.99134248,purple,m,0.1271,alien3,TRUE,3,0.747708887,66,0,0.646010365,x,0.8202,0,101,101,101,1,0.643313989,0.424058962,0.646010365,0.454211483,FALSE,,,,,,,,,,,,,,,,,,,,,,,,,,,,,,,,,
GOSH_A13,2023-11-10_12h57.09.254,two_step_task_legacy,2022.2.4,Win32,60.42661188,43,learning,0,resources/alien3_norm.png,0.686955458,resources/alien4_norm.png,0.403618261,TRUE,TRUE,2,0.573211648,purple,x,0.2541,alien3,TRUE,2,0.536569076,67,1,0.686955458,x,0.4253,0,102,102,102,1,0.631476746,0.389917938,0.686955458,0.403618261,FALSE,,,,,,,,,,,,,,,,,,,,,,,,,,,,,,,,,
GOSH_A13,2023-11-10_12h57.09.254,two_step_task_legacy,2022.2.4,Win32,60.42661188,43,learning,0,resources/alien3_norm.png,0.689619337,resources/alien4_norm.png,0.408997292,TRUE,TRUE,2,0.508316469,purple,x,0.2005,alien3,TRUE,3,0.777340508,67,0,0.689619337,x,0.5565,0,103,103,103,1,0.607448023,0.403863017,0.689619337,0.408997292,FALSE,,,,,,,,,,,,,,,,,,,,,,,,,,,,,,,,,
GOSH_A13,2023-11-10_12h57.09.254,two_step_task_legacy,2022.2.4,Win32,60.42661188,43,learning,0,resources/alien1_norm.png,0.619684973,resources/alien2_norm.png,0.32950117,TRUE,TRUE,3,0.329034217,red,m,0.1593,alien1,TRUE,2,0.482131113,68,1,0.619684973,x,0.5722,0,104,104,104,1,0.619684973,0.32950117,0.705183971,0.360989718,FALSE,,,,,,,,,,,,,,,,,,,,,,,,,,,,,,,,,
GOSH_A13,2023-11-10_12h57.09.254,two_step_task_legacy,2022.2.4,Win32,60.42661188,43,learning,0,resources/alien3_norm.png,0.681410354,resources/alien4_norm.png,0.380752686,TRUE,TRUE,2,0.039373534,purple,x,0.2567,alien3,TRUE,3,0.684774145,68,0,0.681410354,x,0.5914,0,105,105,105,1,0.626375391,0.324837411,0.681410354,0.380752686,FALSE,,,,,,,,,,,,,,,,,,,,,,,,,,,,,,,,,
GOSH_A13,2023-11-10_12h57.09.254,two_step_task_legacy,2022.2.4,Win32,60.42661188,43,learning,1,resources/alien4_norm.png,0.408132147,resources/alien3_norm.png,0.698260812,TRUE,TRUE,2,0.860206541,purple,m,0.2512,alien3,TRUE,3,0.955440942,68,0,0.698260812,m,0.4788,0,106,106,106,1,0.615880608,0.30981068,0.698260812,0.408132147,TRUE,,,,,,,,,,,,,,,,,,,,,,,,,,,,,,,,,
GOSH_A13,2023-11-10_12h57.09.254,two_step_task_legacy,2022.2.4,Win32,60.42661188,43,learning,0,resources/alien2_norm.png,0.292426972,resources/alien1_norm.png,0.62523509,TRUE,TRUE,3,0.667720736,red,m,0.421,alien1,TRUE,2,0.20957463,69,1,0.62523509,m,0.9829,0,107,107,107,1,0.62523509,0.292426972,0.676320094,0.382292006,TRUE,,,,,,,,,,,,,,,,,,,,,,,,,,,,,,,,,
GOSH_A13,2023-11-10_12h57.09.254,two_step_task_legacy,2022.2.4,Win32,60.42661188,43,learning,1,resources/alien3_norm.png,0.660357999,resources/alien4_norm.png,0.37300537,TRUE,TRUE,2,0.736961262,purple,m,0.2554,alien4,TRUE,3,0.598219641,69,0,0.37300537,m,1.3082,0,108,108,108,1,0.598569321,0.344907943,0.660357999,0.37300537,FALSE,,,,,,,,,,,,,,,,,,,,,,,,,,,,,,,,,
GOSH_A13,2023-11-10_12h57.09.254,two_step_task_legacy,2022.2.4,Win32,60.42661188,43,learning,0,resources/alien1_norm.png,0.570361358,resources/alien2_norm.png,0.331154462,TRUE,TRUE,3,0.332155518,red,m,0.2111,alien1,TRUE,3,0.583702487,69,0,0.570361358,x,0.4784,0,109,109,109,1,0.570361358,0.331154462,0.613979315,0.37993784,FALSE,,,,,,,,,,,,,,,,,,,,,,,,,,,,,,,,,
GOSH_A13,2023-11-10_12h57.09.254,two_step_task_legacy,2022.2.4,Win32,60.42661188,43,learning,0,resources/alien3_norm.png,0.619699199,resources/alien4_norm.png,0.393058165,TRUE,TRUE,2,0.016848536,purple,x,0.183,alien3,TRUE,3,0.769020597,69,0,0.619699199,x,0.5532,0,110,110,110,1,0.58740035,0.337657948,0.619699199,0.393058165,FALSE,,,,,,,,,,,,,,,,,,,,,,,,,,,,,,,,,
GOSH_A13,2023-11-10_12h57.09.254,two_step_task_legacy,2022.2.4,Win32,60.42661188,43,learning,0,resources/alien4_norm.png,0.416497809,resources/alien3_norm.png,0.619510259,TRUE,TRUE,2,0.244743823,purple,x,0.2561,alien3,TRUE,3,0.956515438,69,0,0.619510259,m,0.5457,0,111,111,111,1,0.559911302,0.359047055,0.619510259,0.416497809,TRUE,,,,,,,,,,,,,,,,,,,,,,,,,,,,,,,,,
GOSH_A13,2023-11-10_12h57.09.254,two_step_task_legacy,2022.2.4,Win32,60.42661188,43,learning,1,resources/alien3_norm.png,0.613611162,resources/alien4_norm.png,0.435958342,TRUE,TRUE,2,0.919978038,purple,m,0.1334,alien4,TRUE,2,0.12981668,70,1,0.435958342,m,1.1102,0,112,112,112,1,0.545494272,0.411191307,0.613611162,0.435958342,FALSE,,,,,,,,,,,,,,,,,,,,,,,,,,,,,,,,,
GOSH_A13,2023-11-10_12h57.09.254,two_step_task_legacy,2022.2.4,Win32,60.42661188,43,learning,0,resources/alien1_norm.png,0.579246776,resources/alien2_norm.png,0.440247332,TRUE,TRUE,3,0.229397409,red,m,0.3438,alien2,TRUE,2,0.345383795,71,1,0.440247332,m,0.4701,0,113,113,113,1,0.579246776,0.440247332,0.637218142,0.452738616,FALSE,,,,,,,,,,,,,,,,,,,,,,,,,,,,,,,,,
GOSH_A13,2023-11-10_12h57.09.254,two_step_task_legacy,2022.2.4,Win32,60.42661188,43,learning,0,resources/alien2_norm.png,0.425079018,resources/alien1_norm.png,0.583340322,TRUE,TRUE,3,0.495549811,red,m,0.2173,alien2,TRUE,3,0.470239803,71,0,0.425079018,x,0.4781,0,114,114,114,1,0.583340322,0.425079018,0.596355675,0.468325959,TRUE,,,,,,,,,,,,,,,,,,,,,,,,,,,,,,,,,
GOSH_A13,2023-11-10_12h57.09.254,two_step_task_legacy,2022.2.4,Win32,60.42661188,43,learning,1,resources/alien4_norm.png,0.460870818,resources/alien3_norm.png,0.576655415,TRUE,TRUE,2,0.835990407,purple,m,0.1831,alien4,TRUE,2,0.294721591,72,1,0.460870818,x,1.2238,0,115,115,115,1,0.604945689,0.434492892,0.576655415,0.460870818,TRUE,,,,,,,,,,,,,,,,,,,,,,,,,,,,,,,,,
GOSH_A13,2023-11-10_12h57.09.254,two_step_task_legacy,2022.2.4,Win32,60.42661188,43,learning,1,resources/alien2_norm.png,0.411991774,resources/alien1_norm.png,0.586469122,TRUE,TRUE,3,0.953744699,red,x,0.2507,alien1,TRUE,3,0.765732465,72,0,0.586469122,m,1.1681,0,116,116,116,1,0.586469122,0.411991774,0.614935872,0.448255298,TRUE,,,,,,,,,,,,,,,,,,,,,,,,,,,,,,,,,
GOSH_A13,2023-11-10_12h57.09.254,two_step_task_legacy,2022.2.4,Win32,60.42661188,43,learning,1,resources/alien2_norm.png,0.407781491,resources/alien1_norm.png,0.597680175,TRUE,TRUE,3,0.941742153,red,x,0.2283,alien2,TRUE,2,0.073592681,73,1,0.407781491,x,0.6289,0,117,117,117,1,0.597680175,0.407781491,0.642948289,0.438237026,TRUE,,,,,,,,,,,,,,,,,,,,,,,,,,,,,,,,,
GOSH_A13,2023-11-10_12h57.09.254,two_step_task_legacy,2022.2.4,Win32,60.42661188,43,learning,0,resources/alien4_norm.png,0.404509124,resources/alien3_norm.png,0.602822322,TRUE,TRUE,2,0.334617223,purple,x,0.2371,alien4,TRUE,3,0.799056476,73,0,0.404509124,x,0.6502,0,118,118,118,1,0.607140369,0.404204885,0.602822322,0.404509124,TRUE,,,,,,,,,,,,,,,,,,,,,,,,,,,,,,,,,
GOSH_A13,2023-11-10_12h57.09.254,two_step_task_legacy,2022.2.4,Win32,60.42661188,43,learning,0,resources/alien4_norm.png,0.401051938,resources/alien3_norm.png,0.580273823,TRUE,TRUE,2,0.586891897,purple,x,0.154,alien4,TRUE,3,0.508277994,73,0,0.401051938,x,0.4782,0,119,119,119,1,0.645920283,0.380959241,0.580273823,0.401051938,TRUE,,,,,,,,,,,,,,,,,,,,,,,,,,,,,,,,,
GOSH_A13,2023-11-10_12h57.09.254,two_step_task_legacy,2022.2.4,Win32,60.42661188,43,learning,1,resources/alien1_norm.png,0.658547117,resources/alien2_norm.png,0.392859086,TRUE,TRUE,3,0.741697867,red,x,0.227,alien2,TRUE,2,0.082347413,74,1,0.392859086,m,0.5825,0,120,120,120,1,0.658547117,0.392859086,0.631562859,0.412259552,FALSE,,,,,,,,,,,,,,,,,,,,,,,,,,,,,,,,,
GOSH_A13,2023-11-10_12h57.09.254,two_step_task_legacy,2022.2.4,Win32,60.42661188,43,learning,0,resources/alien3_norm.png,0.604082121,resources/alien4_norm.png,0.395928975,TRUE,TRUE,2,0.589037566,purple,x,0.2235,alien3,TRUE,3,0.604796302,74,0,0.604082121,x,0.5503,0,121,121,121,1,0.650404676,0.360451327,0.604082121,0.395928975,FALSE,,,,,,,,,,,,,,,,,,,,,,,,,,,,,,,,,
GOSH_A13,2023-11-10_12h57.09.254,two_step_task_legacy,2022.2.4,Win32,60.42661188,43,learning,0,resources/alien4_norm.png,0.386308261,resources/alien3_norm.png,0.628665817,TRUE,TRUE,2,0.130366585,purple,x,0.2839,alien4,TRUE,2,0.010823455,75,1,0.386308261,x,0.4563,0,122,122,122,1,0.673272533,0.355956285,0.628665817,0.386308261,TRUE,,,,,,,,,,,,,,,,,,,,,,,,,,,,,,,,,
GOSH_A13,2023-11-10_12h57.09.254,two_step_task_legacy,2022.2.4,Win32,60.42661188,43,learning,0,resources/alien2_norm.png,0.327747525,resources/alien1_norm.png,0.670632873,TRUE,TRUE,3,0.662552302,red,m,0.2236,alien2,TRUE,3,0.656223065,75,0,0.327747525,x,0.39,0,123,123,123,1,0.670632873,0.327747525,0.610103866,0.357718182,TRUE,,,,,,,,,,,,,,,,,,,,,,,,,,,,,,,,,
GOSH_A13,2023-11-10_12h57.09.254,two_step_task_legacy,2022.2.4,Win32,60.42661188,43,learning,0,resources/alien4_norm.png,0.37097985,resources/alien3_norm.png,0.613229285,TRUE,TRUE,2,0.394820383,purple,x,0.1949,alien4,TRUE,3,0.708834346,75,0,0.37097985,x,0.4666,0,124,124,124,1,0.657862677,0.344154365,0.613229285,0.37097985,TRUE,,,,,,,,,,,,,,,,,,,,,,,,,,,,,,,,,
GOSH_A13,2023-11-10_12h57.09.254,two_step_task_legacy,2022.2.4,Win32,60.42661188,43,learning,0,resources/alien3_norm.png,0.610850875,resources/alien4_norm.png,0.381658026,TRUE,TRUE,2,0.444270567,purple,x,0.1172,alien4,TRUE,3,0.553851996,75,0,0.381658026,m,0.4963,0,125,125,125,1,0.621544128,0.309658221,0.610850875,0.381658026,FALSE,,,,,,,,,,,,,,,,,,,,,,,,,,,,,,,,,
GOSH_A13,2023-11-10_12h57.09.254,two_step_task_legacy,2022.2.4,Win32,60.42661188,43,learning,0,resources/alien4_norm.png,0.398279361,resources/alien3_norm.png,0.609641124,TRUE,TRUE,2,0.593611052,purple,x,0.2339,alien4,TRUE,2,0.149933247,76,1,0.398279361,x,0.4204,0,126,126,126,1,0.638765158,0.331079162,0.609641124,0.398279361,TRUE,,,,,,,,,,,,,,,,,,,,,,,,,,,,,,,,,
GOSH_A13,2023-11-10_12h57.09.254,two_step_task_legacy,2022.2.4,Win32,60.42661188,43,learning,0,resources/alien3_norm.png,0.58487235,resources/alien4_norm.png,0.373544908,TRUE,TRUE,2,0.388418415,purple,x,0.103,alien4,TRUE,2,0.141637004,77,1,0.373544908,m,0.4396,0,127,127,127,1,0.626231969,0.317571318,0.58487235,0.373544908,FALSE,,,,,,,,,,,,,,,,,,,,,,,,,,,,,,,,,
GOSH_A13,2023-11-10_12h57.09.254,two_step_task_legacy,2022.2.4,Win32,60.42661188,43,learning,0,resources/alien4_norm.png,0.391101509,resources/alien3_norm.png,0.568265306,TRUE,TRUE,2,0.06402995,purple,x,0.0664,alien4,TRUE,2,0.059914378,78,1,0.391101509,x,0.4502,0,128,128,128,1,0.678718937,0.327327384,0.568265306,0.391101509,TRUE,,,,,,,,,,,,,,,,,,,,,,,,,,,,,,,,,
GOSH_A13,2023-11-10_12h57.09.254,two_step_task_legacy,2022.2.4,Win32,60.42661188,43,learning,1,resources/alien2_norm.png,0.320525721,resources/alien1_norm.png,0.684288487,TRUE,TRUE,3,0.700621924,red,x,0.1829,alien2,TRUE,3,0.755915343,78,0,0.320525721,x,1.1278,0,129,129,129,1,0.684288487,0.320525721,0.597478578,0.421707366,TRUE,,,,,,,,,,,,,,,,,,,,,,,,,,,,,,,,,
GOSH_A13,2023-11-10_12h57.09.254,two_step_task_legacy,2022.2.4,Win32,60.42661188,43,learning,1,resources/alien4_norm.png,0.43392991,resources/alien3_norm.png,0.601527307,TRUE,TRUE,2,0.821969226,purple,m,0.1437,alien4,TRUE,2,0.083744291,79,1,0.43392991,x,0.5549,0,130,130,130,1,0.708061265,0.343294024,0.601527307,0.43392991,TRUE,,,,,,,,,,,,,,,,,,,,,,,,,,,,,,,,,
GOSH_A13,2023-11-10_12h57.09.254,two_step_task_legacy,2022.2.4,Win32,60.42661188,43,learning,1,resources/alien3_norm.png,0.64763363,resources/alien4_norm.png,0.426719665,TRUE,TRUE,2,0.918331882,purple,m,0.187,alien4,TRUE,2,0.385289504,80,1,0.426719665,m,0.5973,0,131,131,131,1,0.686290312,0.382507356,0.64763363,0.426719665,FALSE,,,,,,,,,,,,,,,,,,,,,,,,,,,,,,,,,
GOSH_A13,2023-11-10_12h57.09.254,two_step_task_legacy,2022.2.4,Win32,60.42661188,43,learning,0,resources/alien2_norm.png,0.351467325,resources/alien1_norm.png,0.699484736,TRUE,TRUE,3,0.054014506,red,m,0.231,alien2,TRUE,3,0.764663896,80,0,0.351467325,x,0.3422,0,132,132,132,1,0.699484736,0.351467325,0.651574397,0.46105971,TRUE,,,,,,,,,,,,,,,,,,,,,,,,,,,,,,,,,
GOSH_A13,2023-11-10_12h57.09.254,two_step_task_legacy,2022.2.4,Win32,60.42661188,43,learning,0,resources/alien1_norm.png,0.641468852,resources/alien2_norm.png,0.341104878,TRUE,TRUE,3,0.43933913,red,m,0.1664,alien1,TRUE,3,0.991225637,80,0,0.641468852,x,0.5123,0,133,133,133,1,0.641468852,0.341104878,0.646278608,0.445730538,FALSE,,,,,,,,,,,,,,,,,,,,,,,,,,,,,,,,,
GOSH_A13,2023-11-10_12h57.09.254,two_step_task_legacy,2022.2.4,Win32,60.42661188,43,learning,1,resources/alien4_norm.png,0.415065107,resources/alien3_norm.png,0.567315406,TRUE,TRUE,2,0.72976711,purple,m,0.0006,alien4,TRUE,2,0.11851291,81,1,0.415065107,x,0.6076,0,134,134,134,1,0.644630983,0.334501306,0.567315406,0.415065107,TRUE,,,,,,,,,,,,,,,,,,,,,,,,,,,,,,,,,
GOSH_A13,2023-11-10_12h57.09.254,two_step_task_legacy,2022.2.4,Win32,60.42661188,43,learning,0,resources/alien3_norm.png,0.546803619,resources/alien4_norm.png,0.435505403,TRUE,TRUE,2,0.342030162,purple,x,0.0766,alien4,TRUE,3,0.974811398,81,0,0.435505403,m,0.5884,0,135,135,135,1,0.62177449,0.306808941,0.546803619,0.435505403,FALSE,,,,,,,,,,,,,,,,,,,,,,,,,,,,,,,,,
GOSH_A13,2023-11-10_12h57.09.254,two_step_task_legacy,2022.2.4,Win32,60.42661188,43,learning,0,resources/alien4_norm.png,0.435824404,resources/alien3_norm.png,0.530728159,TRUE,TRUE,2,0.266180386,purple,x,0.1873,alien4,TRUE,3,0.648103487,81,0,0.435824404,x,0.55,0,136,136,136,1,0.583999286,0.335239917,0.530728159,0.435824404,TRUE,,,,,,,,,,,,,,,,,,,,,,,,,,,,,,,,,
GOSH_A13,2023-11-10_12h57.09.254,two_step_task_legacy,2022.2.4,Win32,60.42661188,43,learning,1,resources/alien2_norm.png,0.307734706,resources/alien1_norm.png,0.622896698,TRUE,TRUE,3,0.96578766,red,x,0.0494,alien1,TRUE,3,0.990971528,81,0,0.622896698,m,1.4247,0,137,137,137,1,0.622896698,0.307734706,0.526351702,0.410734121,TRUE,,,,,,,,,,,,,,,,,,,,,,,,,,,,,,,,,
GOSH_A13,2023-11-10_12h57.09.254,two_step_task_legacy,2022.2.4,Win32,60.42661188,43,learning,0,resources/alien4_norm.png,0.424768301,resources/alien3_norm.png,0.540851944,TRUE,TRUE,2,0.135676283,purple,x,0.1942,alien4,TRUE,2,0.144554493,82,1,0.424768301,x,0.4065,0,138,138,138,1,0.652449873,0.293138513,0.540851944,0.424768301,TRUE,,,,,,,,,,,,,,,,,,,,,,,,,,,,,,,,,
GOSH_A13,2023-11-10_12h57.09.254,two_step_task_legacy,2022.2.4,Win32,60.42661188,43,learning,1,resources/alien1_norm.png,0.641621388,resources/alien2_norm.png,0.272932121,TRUE,TRUE,3,0.952945227,red,x,0.2258,alien1,TRUE,2,0.131692763,83,1,0.641621388,x,0.8994,0,139,139,139,1,0.641621388,0.272932121,0.526378494,0.405697073,FALSE,,,,,,,,,,,,,,,,,,,,,,,,,,,,,,,,,
GOSH_A13,2023-11-10_12h57.09.254,two_step_task_legacy,2022.2.4,Win32,60.42661188,43,learning,1,resources/alien1_norm.png,0.62488726,resources/alien2_norm.png,0.255851205,TRUE,TRUE,3,0.936134367,red,x,0.2344,alien2,TRUE,3,0.726051625,83,0,0.255851205,m,0.7449,0,140,140,140,1,0.62488726,0.255851205,0.5484319,0.443309791,FALSE,,,,,,,,,,,,,,,,,,,,,,,,,,,,,,,,,
GOSH_A13,2023-11-10_12h57.09.254,two_step_task_legacy,2022.2.4,Win32,60.42661188,43,learning,0,resources/alien3_norm.png,0.528872078,resources/alien4_norm.png,0.47882794,TRUE,TRUE,2,0.577467176,purple,x,0.1657,alien4,TRUE,3,0.699246239,83,0,0.47882794,m,0.6659,0,141,141,141,1,0.662793601,0.257559917,0.528872078,0.47882794,FALSE,,,,,,,,,,,,,,,,,,,,,,,,,,,,,,,,,
GOSH_A13,2023-11-10_12h57.09.254,two_step_task_legacy,2022.2.4,Win32,60.42661188,43,learning,1,resources/alien1_norm.png,0.673804421,resources/alien2_norm.png,0.263651818,TRUE,TRUE,3,0.826050514,red,x,0.1164,alien1,TRUE,2,0.164505636,84,1,0.673804421,x,1.644,0,142,142,142,1,0.673804421,0.263651818,0.534881349,0.463754704,FALSE,,,,,,,,,,,,,,,,,,,,,,,,,,,,,,,,,
GOSH_A13,2023-11-10_12h57.09.254,two_step_task_legacy,2022.2.4,Win32,60.42661188,43,learning,0,resources/alien1_norm.png,0.698580012,resources/alien2_norm.png,0.269979962,TRUE,TRUE,3,0.407461592,red,m,0.2241,alien1,TRUE,2,0.591890792,85,1,0.698580012,x,0.5014,0,143,143,143,1,0.698580012,0.269979962,0.509649718,0.462479402,FALSE,,,,,,,,,,,,,,,,,,,,,,,,,,,,,,,,,
GOSH_A13,2023-11-10_12h57.09.254,two_step_task_legacy,2022.2.4,Win32,60.42661188,43,learning,1,resources/alien4_norm.png,0.449444223,resources/alien3_norm.png,0.586453861,TRUE,TRUE,2,0.822576067,purple,m,0.1977,alien4,TRUE,3,0.921330057,85,0,0.449444223,x,0.6334,0,144,144,144,1,0.736530576,0.296852887,0.586453861,0.449444223,TRUE,,,,,,,,,,,,,,,,,,,,,,,,,,,,,,,,,
GOSH_A13,2023-11-10_12h57.09.254,two_step_task_legacy,2022.2.4,Win32,60.42661188,43,learning,1,resources/alien4_norm.png,0.429541148,resources/alien3_norm.png,0.591891528,TRUE,TRUE,2,0.855523215,purple,m,0.1576,alien3,TRUE,2,0.436813995,86,1,0.591891528,m,0.5325,0,145,145,145,1,0.729630293,0.285357955,0.591891528,0.429541148,TRUE,,,,,,,,,,,,,,,,,,,,,,,,,,,,,,,,,
GOSH_A13,2023-11-10_12h57.09.254,two_step_task_legacy,2022.2.4,Win32,60.42661188,43,learning,0,resources/alien1_norm.png,0.733408604,resources/alien2_norm.png,0.263038351,TRUE,TRUE,3,0.661505951,red,m,0.2214,alien1,TRUE,2,0.548036014,87,1,0.733408604,x,0.3823,0,146,146,146,1,0.733408604,0.263038351,0.600996283,0.450195866,FALSE,,,,,,,,,,,,,,,,,,,,,,,,,,,,,,,,,
GOSH_A13,2023-11-10_12h57.09.254,two_step_task_legacy,2022.2.4,Win32,60.42661188,43,learning,0,resources/alien1_norm.png,0.711810619,resources/alien2_norm.png,0.298461205,TRUE,TRUE,3,0.623825875,red,m,0.1044,alien1,TRUE,3,0.791218501,87,0,0.711810619,x,0.3697,0,147,147,147,1,0.711810619,0.298461205,0.595997484,0.445300194,FALSE,,,,,,,,,,,,,,,,,,,,,,,,,,,,,,,,,
GOSH_A13,2023-11-10_12h57.09.254,two_step_task_legacy,2022.2.4,Win32,60.42661188,43,learning,1,resources/alien3_norm.png,0.600330442,resources/alien4_norm.png,0.429892682,TRUE,TRUE,2,0.877807344,purple,m,0.25,alien3,TRUE,3,0.712565137,87,0,0.600330442,x,1.1396,0,148,148,148,1,0.687823782,0.306984466,0.600330442,0.429892682,FALSE,,,,,,,,,,,,,,,,,,,,,,,,,,,,,,,,,
GOSH_A13,2023-11-10_12h57.09.254,two_step_task_legacy,2022.2.4,Win32,60.42661188,43,learning,0,resources/alien1_norm.png,0.68869481,resources/alien2_norm.png,0.319584149,TRUE,TRUE,3,0.61372683,red,m,0.0005,alien1,TRUE,3,0.868806953,87,0,0.68869481,x,0.3347,0,149,149,149,1,0.68869481,0.319584149,0.630930916,0.426929955,FALSE,,,,,,,,,,,,,,,,,,,,,,,,,,,,,,,,,
GOSH_A13,2023-11-10_12h57.09.254,two_step_task_legacy,2022.2.4,Win32,60.42661188,43,learning,1,resources/alien1_norm.png,0.7,resources/alien2_norm.png,0.3,TRUE,TRUE,3,0.739634513,red,x,0.3613,alien1,TRUE,2,0.169131432,88,1,0.7,x,0.5374,0,150,150,150,1,0.7,0.3,0.6,0.4,FALSE,,,,,,,,,,,,,,,,,,,,,,,,,,,,,,,,,
GOSH_A13,2023-11-10_12h57.09.254,two_step_task_legacy,2022.2.4,Win32,60.42661188,43,learning,0,resources/alien4_norm.png,0.4,resources/alien3_norm.png,0.6,TRUE,TRUE,2,0.581765772,purple,x,0.2344,alien4,TRUE,2,0.167312453,89,1,0.4,x,0.5493,0,151,151,151,1,0.7,0.3,0.6,0.4,TRUE,,,,,,,,,,,,,,,,,,,,,,,,,,,,,,,,,
GOSH_A13,2023-11-10_12h57.09.254,two_step_task_legacy,2022.2.4,Win32,60.42661188,43,learning,0,resources/alien4_norm.png,0.4,resources/alien3_norm.png,0.6,TRUE,TRUE,2,0.468207334,purple,x,0.177,alien4,TRUE,2,0.332685713,90,1,0.4,x,0.4271,0,152,152,152,1,0.7,0.3,0.6,0.4,TRUE,,,,,,,,,,,,,,,,,,,,,,,,,,,,,,,,,
GOSH_A13,2023-11-10_12h57.09.254,two_step_task_legacy,2022.2.4,Win32,60.42661188,43,learning,0,resources/alien4_norm.png,0.4,resources/alien3_norm.png,0.6,TRUE,TRUE,2,0.410510218,purple,x,0.304,alien4,TRUE,2,0.083492179,91,1,0.4,x,0.4874,0,153,153,153,1,0.7,0.3,0.6,0.4,TRUE,,,,,,,,,,,,,,,,,,,,,,,,,,,,,,,,,
GOSH_A13,2023-11-10_12h57.09.254,two_step_task_legacy,2022.2.4,Win32,60.42661188,43,learning,0,resources/alien4_norm.png,0.4,resources/alien3_norm.png,0.6,TRUE,TRUE,2,0.248342665,purple,x,0.242,alien4,TRUE,2,0.107565664,92,1,0.4,x,0.473,0,154,154,154,1,0.7,0.3,0.6,0.4,TRUE,,,,,,,,,,,,,,,,,,,,,,,,,,,,,,,,,
GOSH_A13,2023-11-10_12h57.09.254,two_step_task_legacy,2022.2.4,Win32,60.42661188,43,learning,0,resources/alien4_norm.png,0.4,resources/alien3_norm.png,0.6,TRUE,TRUE,2,0.56887051,purple,x,0.2062,alien4,TRUE,3,0.478373639,92,0,0.4,x,0.5011,0,155,155,155,1,0.7,0.3,0.6,0.4,TRUE,,,,,,,,,,,,,,,,,,,,,,,,,,,,,,,,,
GOSH_A13,2023-11-10_12h57.09.254,two_step_task_legacy,2022.2.4,Win32,60.42661188,43,learning,1,resources/alien2_norm.png,0.3,resources/alien1_norm.png,0.7,TRUE,TRUE,3,0.709597989,red,x,0.025,alien1,TRUE,2,0.17804216,93,1,0.7,m,0.5868,0,156,156,156,1,0.7,0.3,0.6,0.4,TRUE,,,,,,,,,,,,,,,,,,,,,,,,,,,,,,,,,
GOSH_A13,2023-11-10_12h57.09.254,two_step_task_legacy,2022.2.4,Win32,60.42661188,43,learning,0,resources/alien2_norm.png,0.3,resources/alien1_norm.png,0.7,TRUE,TRUE,3,0.477966891,red,m,0.1498,alien1,TRUE,2,0.592424721,94,1,0.7,m,0.5001,0,157,157,157,1,0.7,0.3,0.6,0.4,TRUE,,,,,,,,,,,,,,,,,,,,,,,,,,,,,,,,,
GOSH_A13,2023-11-10_12h57.09.254,two_step_task_legacy,2022.2.4,Win32,60.42661188,43,learning,1,resources/alien4_norm.png,0.4,resources/alien3_norm.png,0.6,TRUE,TRUE,2,0.973017464,purple,m,0.1203,alien4,TRUE,3,0.686666698,94,0,0.4,x,0.5056,0,158,158,158,1,0.7,0.3,0.6,0.4,TRUE,,,,,,,,,,,,,,,,,,,,,,,,,,,,,,,,,
GOSH_A13,2023-11-10_12h57.09.254,two_step_task_legacy,2022.2.4,Win32,60.42661188,43,learning,0,resources/alien4_norm.png,0.4,resources/alien3_norm.png,0.6,TRUE,TRUE,2,0.063771758,purple,x,0.0504,alien4,TRUE,3,0.639328656,94,0,0.4,x,0.4042,0,159,159,159,1,0.7,0.3,0.6,0.4,TRUE,,,,,,,,,,,,,,,,,,,,,,,,,,,,,,,,,
GOSH_A13,2023-11-10_12h57.09.254,two_step_task_legacy,2022.2.4,Win32,60.42661188,43,learning,1,resources/alien1_norm.png,0.7,resources/alien2_norm.png,0.3,TRUE,TRUE,3,0.902867355,red,x,0.182,alien1,TRUE,2,0.354937091,95,1,0.7,x,0.716,0,160,160,160,1,0.7,0.3,0.6,0.4,FALSE,,,,,,,,,,,,,,,,,,,,,,,,,,,,,,,,,
GOSH_A13,2023-11-10_12h57.09.254,two_step_task_legacy,2022.2.4,Win32,60.42661188,43,learning,0,resources/alien1_norm.png,0.7,resources/alien2_norm.png,0.3,TRUE,TRUE,3,0.687648303,red,m,0.1831,alien1,TRUE,3,0.751110335,95,0,0.7,x,0.6097,0,161,161,161,1,0.7,0.3,0.6,0.4,FALSE,,,,,,,,,,,,,,,,,,,,,,,,,,,,,,,,,
GOSH_A13,2023-11-10_12h57.09.254,two_step_task_legacy,2022.2.4,Win32,60.42661188,43,learning,0,resources/alien4_norm.png,0.4,resources/alien3_norm.png,0.6,TRUE,TRUE,2,0.48430944,purple,x,0.3841,alien3,TRUE,2,0.134428692,96,1,0.6,m,0.6055,0,162,162,162,1,0.7,0.3,0.6,0.4,TRUE,,,,,,,,,,,,,,,,,,,,,,,,,,,,,,,,,
GOSH_A13,2023-11-10_12h57.09.254,two_step_task_legacy,2022.2.4,Win32,60.42661188,43,learning,1,resources/alien2_norm.png,0.3,resources/alien1_norm.png,0.7,TRUE,TRUE,3,0.795471259,red,x,0.1736,alien1,TRUE,3,0.868566181,96,0,0.7,m,1.183,0,163,163,163,1,0.7,0.3,0.6,0.4,TRUE,,,,,,,,,,,,,,,,,,,,,,,,,,,,,,,,,
GOSH_A13,2023-11-10_12h57.09.254,two_step_task_legacy,2022.2.4,Win32,60.42661188,43,learning,0,resources/alien3_norm.png,0.6,resources/alien4_norm.png,0.4,TRUE,TRUE,2,0.233315251,purple,x,0.0227,alien3,TRUE,2,0.360010114,97,1,0.6,x,0.7172,0,164,164,164,1,0.7,0.3,0.6,0.4,FALSE,,,,,,,,,,,,,,,,,,,,,,,,,,,,,,,,,
GOSH_A13,2023-11-10_12h57.09.254,two_step_task_legacy,2022.2.4,Win32,60.42661188,43,learning,1,resources/alien1_norm.png,0.7,resources/alien2_norm.png,0.3,TRUE,TRUE,3,0.908913202,red,x,0.2231,alien2,TRUE,3,0.544830948,97,0,0.3,m,1.1376,0,165,165,165,1,0.7,0.3,0.6,0.4,FALSE,,,,,,,,,,,,,,,,,,,,,,,,,,,,,,,,,
GOSH_A13,2023-11-10_12h57.09.254,two_step_task_legacy,2022.2.4,Win32,60.42661188,43,learning,0,resources/alien3_norm.png,0.6,resources/alien4_norm.png,0.4,TRUE,TRUE,2,0.446708091,purple,x,0.1813,alien3,TRUE,3,0.616651105,97,0,0.6,x,0.4112,0,166,166,166,1,0.7,0.3,0.6,0.4,FALSE,,,,,,,,,,,,,,,,,,,,,,,,,,,,,,,,,
GOSH_A13,2023-11-10_12h57.09.254,two_step_task_legacy,2022.2.4,Win32,60.42661188,43,learning,0,resources/alien1_norm.png,0.7,resources/alien2_norm.png,0.3,TRUE,TRUE,3,0.384252376,red,m,0.3006,alien1,TRUE,2,0.350829083,98,1,0.7,x,0.3816,0,167,167,167,1,0.7,0.3,0.6,0.4,FALSE,,,,,,,,,,,,,,,,,,,,,,,,,,,,,,,,,
GOSH_A13,2023-11-10_12h57.09.254,two_step_task_legacy,2022.2.4,Win32,60.42661188,43,learning,0,resources/alien2_norm.png,0.3,resources/alien1_norm.png,0.7,TRUE,TRUE,3,0.575307925,red,m,0.2394,alien1,TRUE,2,0.112022619,99,1,0.7,m,0.4509,0,168,168,168,1,0.7,0.3,0.6,0.4,TRUE,,,,,,,,,,,,,,,,,,,,,,,,,,,,,,,,,
GOSH_A13,2023-11-10_12h57.09.254,two_step_task_legacy,2022.2.4,Win32,60.42661188,43,learning,1,resources/alien3_norm.png,0.6,resources/alien4_norm.png,0.4,TRUE,TRUE,2,0.772597347,purple,m,0.2511,alien3,TRUE,3,0.838536389,99,0,0.6,x,0.5169,0,169,169,169,1,0.7,0.3,0.6,0.4,FALSE,,,,,,,,,,,,,,,,,,,,,,,,,,,,,,,,,
GOSH_A13,2023-11-10_12h57.09.254,two_step_task_legacy,2022.2.4,Win32,60.42661188,43,learning,0,resources/alien2_norm.png,0.3,resources/alien1_norm.png,0.7,TRUE,TRUE,3,0.306491538,red,m,0.1198,alien1,TRUE,2,0.315815542,100,1,0.7,m,0.3822,0,170,170,170,1,0.7,0.3,0.6,0.4,TRUE,,,,,,,,,,,,,,,,,,,,,,,,,,,,,,,,,
GOSH_A13,2023-11-10_12h57.09.254,two_step_task_legacy,2022.2.4,Win32,60.42661188,43,learning,1,resources/alien4_norm.png,0.4,resources/alien3_norm.png,0.6,TRUE,TRUE,2,0.971049535,purple,m,0.2339,alien4,TRUE,3,0.444355708,100,0,0.4,x,0.8179,0,171,171,171,1,0.7,0.3,0.6,0.4,TRUE,,,,,,,,,,,,,,,,,,,,,,,,,,,,,,,,,
GOSH_A13,2023-11-10_12h57.09.254,two_step_task_legacy,2022.2.4,Win32,60.42661188,43,learning,0,resources/alien2_norm.png,0.3,resources/alien1_norm.png,0.7,TRUE,TRUE,3,0.404984347,red,m,0.1947,alien1,TRUE,2,0.24355175,101,1,0.7,m,0.4834,0,172,172,172,1,0.7,0.3,0.6,0.4,TRUE,,,,,,,,,,,,,,,,,,,,,,,,,,,,,,,,,
GOSH_A13,2023-11-10_12h57.09.254,two_step_task_legacy,2022.2.4,Win32,60.42661188,43,learning,0,resources/alien1_norm.png,0.7,resources/alien2_norm.png,0.3,TRUE,TRUE,3,0.403822809,red,m,0.2382,alien1,TRUE,3,0.910715066,101,0,0.7,x,0.4781,0,173,173,173,1,0.7,0.3,0.6,0.4,FALSE,,,,,,,,,,,,,,,,,,,,,,,,,,,,,,,,,
GOSH_A13,2023-11-10_12h57.09.254,two_step_task_legacy,2022.2.4,Win32,60.42661188,43,learning,1,resources/alien4_norm.png,0.4,resources/alien3_norm.png,0.6,TRUE,TRUE,2,0.705069927,purple,m,0.1151,alien3,TRUE,3,0.730388272,101,0,0.6,m,0.8369,0,174,174,174,1,0.7,0.3,0.6,0.4,TRUE,,,,,,,,,,,,,,,,,,,,,,,,,,,,,,,,,
GOSH_A13,2023-11-10_12h57.09.254,two_step_task_legacy,2022.2.4,Win32,60.42661188,43,learning,0,resources/alien2_norm.png,0.3,resources/alien1_norm.png,0.7,TRUE,TRUE,3,0.005666025,red,m,0.0834,alien1,TRUE,2,0.23720533,102,1,0.7,m,0.4522,0,175,175,175,1,0.7,0.3,0.6,0.4,TRUE,,,,,,,,,,,,,,,,,,,,,,,,,,,,,,,,,
GOSH_A13,2023-11-10_12h57.09.254,two_step_task_legacy,2022.2.4,Win32,60.42661188,43,learning,0,resources/alien2_norm.png,0.3,resources/alien1_norm.png,0.7,TRUE,TRUE,3,0.557437384,red,m,0.1669,alien1,TRUE,2,0.086418824,103,1,0.7,m,0.3842,0,176,176,176,1,0.7,0.3,0.6,0.4,TRUE,,,,,,,,,,,,,,,,,,,,,,,,,,,,,,,,,
GOSH_A13,2023-11-10_12h57.09.254,two_step_task_legacy,2022.2.4,Win32,60.42661188,43,learning,0,resources/alien2_norm.png,0.3,resources/alien1_norm.png,0.7,TRUE,TRUE,3,0.546078095,red,m,0.168,alien1,TRUE,3,0.751979633,103,0,0.7,m,0.404,0,177,177,177,1,0.7,0.3,0.6,0.4,TRUE,,,,,,,,,,,,,,,,,,,,,,,,,,,,,,,,,
GOSH_A13,2023-11-10_12h57.09.254,two_step_task_legacy,2022.2.4,Win32,60.42661188,43,learning,0,resources/alien1_norm.png,0.7,resources/alien2_norm.png,0.3,TRUE,TRUE,3,0.541509838,red,m,0.0689,alien1,TRUE,3,0.850772331,103,0,0.7,x,0.4507,0,178,178,178,1,0.7,0.3,0.6,0.4,FALSE,,,,,,,,,,,,,,,,,,,,,,,,,,,,,,,,,
GOSH_A13,2023-11-10_12h57.09.254,two_step_task_legacy,2022.2.4,Win32,60.42661188,43,learning,1,resources/alien4_norm.png,0.4,resources/alien3_norm.png,0.6,TRUE,TRUE,2,0.907711235,purple,m,0.1595,alien3,TRUE,3,0.637108752,103,0,0.6,m,1.1273,0,179,179,179,1,0.7,0.3,0.6,0.4,TRUE,,,,,,,,,,,,,,,,,,,,,,,,,,,,,,,,,
GOSH_A13,2023-11-10_12h57.09.254,two_step_task_legacy,2022.2.4,Win32,60.42661188,43,learning,0,resources/alien4_norm.png,0.4,resources/alien3_norm.png,0.6,TRUE,TRUE,2,0.68663715,purple,x,0.2874,alien4,TRUE,3,0.735012494,103,0,0.4,x,0.3549,0,180,180,180,1,0.7,0.3,0.6,0.4,TRUE,,,,,,,,,,,,,,,,,,,,,,,,,,,,,,,,,
GOSH_A13,2023-11-10_12h57.09.254,two_step_task_legacy,2022.2.4,Win32,60.42661188,43,learning,0,resources/alien3_norm.png,0.6,resources/alien4_norm.png,0.4,TRUE,TRUE,2,0.151481534,purple,x,0.2169,alien3,TRUE,2,0.50775863,104,1,0.6,x,0.427,0,181,181,181,1,0.7,0.3,0.6,0.4,FALSE,,,,,,,,,,,,,,,,,,,,,,,,,,,,,,,,,
GOSH_A13,2023-11-10_12h57.09.254,two_step_task_legacy,2022.2.4,Win32,60.42661188,43,learning,0,resources/alien3_norm.png,0.6,resources/alien4_norm.png,0.4,TRUE,TRUE,2,0.297770371,purple,x,0.2718,alien3,TRUE,3,0.675275252,104,0,0.6,x,0.401,0,182,182,182,1,0.7,0.3,0.6,0.4,FALSE,,,,,,,,,,,,,,,,,,,,,,,,,,,,,,,,,
GOSH_A13,2023-11-10_12h57.09.254,two_step_task_legacy,2022.2.4,Win32,60.42661188,43,learning,0,resources/alien1_norm.png,0.7,resources/alien2_norm.png,0.3,TRUE,TRUE,3,0.470983457,red,m,0.0881,alien1,TRUE,2,0.269331642,105,1,0.7,x,0.5329,0,183,183,183,1,0.7,0.3,0.6,0.4,FALSE,,,,,,,,,,,,,,,,,,,,,,,,,,,,,,,,,
GOSH_A13,2023-11-10_12h57.09.254,two_step_task_legacy,2022.2.4,Win32,60.42661188,43,learning,1,resources/alien3_norm.png,0.6,resources/alien4_norm.png,0.4,TRUE,TRUE,2,0.758375644,purple,m,0.2169,alien4,TRUE,2,0.385737883,106,1,0.4,m,0.6141,0,184,184,184,1,0.7,0.3,0.6,0.4,FALSE,,,,,,,,,,,,,,,,,,,,,,,,,,,,,,,,,
GOSH_A13,2023-11-10_12h57.09.254,two_step_task_legacy,2022.2.4,Win32,60.42661188,43,learning,0,resources/alien1_norm.png,0.7,resources/alien2_norm.png,0.3,TRUE,TRUE,3,0.012796121,red,m,0.2064,alien1,TRUE,2,0.245379492,107,1,0.7,x,0.5754,0,185,185,185,1,0.7,0.3,0.6,0.4,FALSE,,,,,,,,,,,,,,,,,,,,,,,,,,,,,,,,,
GOSH_A13,2023-11-10_12h57.09.254,two_step_task_legacy,2022.2.4,Win32,60.42661188,43,learning,1,resources/alien3_norm.png,0.6,resources/alien4_norm.png,0.4,TRUE,TRUE,2,0.929011084,purple,m,0.1164,alien3,TRUE,2,0.538793368,108,1,0.6,x,0.8317,0,186,186,186,1,0.7,0.3,0.6,0.4,FALSE,,,,,,,,,,,,,,,,,,,,,,,,,,,,,,,,,
GOSH_A13,2023-11-10_12h57.09.254,two_step_task_legacy,2022.2.4,Win32,60.42661188,43,learning,0,resources/alien2_norm.png,0.3,resources/alien1_norm.png,0.7,TRUE,TRUE,3,0.267710939,red,m,0.3903,alien1,TRUE,3,0.766041879,108,0,0.7,m,0.7013,0,187,187,187,1,0.7,0.3,0.6,0.4,TRUE,,,,,,,,,,,,,,,,,,,,,,,,,,,,,,,,,
GOSH_A13,2023-11-10_12h57.09.254,two_step_task_legacy,2022.2.4,Win32,60.42661188,43,learning,0,resources/alien2_norm.png,0.3,resources/alien1_norm.png,0.7,TRUE,TRUE,3,0.292158817,red,m,0.2016,alien2,TRUE,2,0.206692544,109,1,0.3,x,0.4901,0,188,188,188,1,0.7,0.3,0.6,0.4,TRUE,,,,,,,,,,,,,,,,,,,,,,,,,,,,,,,,,
GOSH_A13,2023-11-10_12h57.09.254,two_step_task_legacy,2022.2.4,Win32,60.42661188,43,learning,1,resources/alien3_norm.png,0.6,resources/alien4_norm.png,0.4,TRUE,TRUE,2,0.758077709,purple,m,0.218,alien3,TRUE,3,0.845167182,109,0,0.6,x,0.6081,0,189,189,189,1,0.7,0.3,0.6,0.4,FALSE,,,,,,,,,,,,,,,,,,,,,,,,,,,,,,,,,
GOSH_A13,2023-11-10_12h57.09.254,two_step_task_legacy,2022.2.4,Win32,60.42661188,43,learning,0,resources/alien1_norm.png,0.7,resources/alien2_norm.png,0.3,TRUE,TRUE,3,0.460961511,red,m,0.0978,alien2,TRUE,3,0.470750074,109,0,0.3,m,0.5168,0,190,190,190,1,0.7,0.3,0.6,0.4,FALSE,,,,,,,,,,,,,,,,,,,,,,,,,,,,,,,,,
GOSH_A13,2023-11-10_12h57.09.254,two_step_task_legacy,2022.2.4,Win32,60.42661188,43,learning,0,resources/alien2_norm.png,0.3,resources/alien1_norm.png,0.7,TRUE,TRUE,3,0.072372807,red,m,0.4173,alien1,TRUE,2,0.03781891,110,1,0.7,m,0.4199,0,191,191,191,1,0.7,0.3,0.6,0.4,TRUE,,,,,,,,,,,,,,,,,,,,,,,,,,,,,,,,,
GOSH_A13,2023-11-10_12h57.09.254,two_step_task_legacy,2022.2.4,Win32,60.42661188,43,learning,1,resources/alien2_norm.png,0.3,resources/alien1_norm.png,0.7,TRUE,TRUE,3,0.738086884,red,x,0.2711,alien2,TRUE,2,0.058759418,111,1,0.3,x,0.5509,0,192,192,192,1,0.7,0.3,0.6,0.4,TRUE,,,,,,,,,,,,,,,,,,,,,,,,,,,,,,,,,
GOSH_A13,2023-11-10_12h57.09.254,two_step_task_legacy,2022.2.4,Win32,60.42661188,43,learning,0,resources/alien2_norm.png,0.3,resources/alien1_norm.png,0.7,TRUE,TRUE,3,0.444713325,red,m,0.2506,alien2,TRUE,3,0.805817686,111,0,0.3,x,0.4675,0,193,193,193,1,0.7,0.3,0.6,0.4,TRUE,,,,,,,,,,,,,,,,,,,,,,,,,,,,,,,,,
GOSH_A13,2023-11-10_12h57.09.254,two_step_task_legacy,2022.2.4,Win32,60.42661188,43,learning,0,resources/alien1_norm.png,0.7,resources/alien2_norm.png,0.3,TRUE,TRUE,3,0.66152979,red,m,0.2941,alien2,TRUE,3,0.396196486,111,0,0.3,m,0.5177,0,194,194,194,1,0.7,0.3,0.6,0.4,FALSE,,,,,,,,,,,,,,,,,,,,,,,,,,,,,,,,,
GOSH_A13,2023-11-10_12h57.09.254,two_step_task_legacy,2022.2.4,Win32,60.42661188,43,learning,0,resources/alien1_norm.png,0.7,resources/alien2_norm.png,0.3,TRUE,TRUE,3,0.404981335,red,m,0.2251,alien1,TRUE,2,0.198253058,112,1,0.7,x,0.3942,0,195,195,195,1,0.7,0.3,0.6,0.4,FALSE,,,,,,,,,,,,,,,,,,,,,,,,,,,,,,,,,
GOSH_A13,2023-11-10_12h57.09.254,two_step_task_legacy,2022.2.4,Win32,60.42661188,43,learning,1,resources/alien4_norm.png,0.4,resources/alien3_norm.png,0.6,TRUE,TRUE,2,0.852674909,purple,m,0.2097,alien4,TRUE,3,0.917947055,112,0,0.4,x,0.8368,0,196,196,196,1,0.7,0.3,0.6,0.4,TRUE,,,,,,,,,,,,,,,,,,,,,,,,,,,,,,,,,
GOSH_A13,2023-11-10_12h57.09.254,two_step_task_legacy,2022.2.4,Win32,60.42661188,43,learning,0,resources/alien3_norm.png,0.6,resources/alien4_norm.png,0.4,TRUE,TRUE,2,0.395697991,purple,x,0.2205,alien3,TRUE,3,0.866727629,112,0,0.6,x,0.4851,0,197,197,197,1,0.7,0.3,0.6,0.4,FALSE,,,,,,,,,,,,,,,,,,,,,,,,,,,,,,,,,
GOSH_A13,2023-11-10_12h57.09.254,two_step_task_legacy,2022.2.4,Win32,60.42661188,43,learning,0,resources/alien2_norm.png,0.3,resources/alien1_norm.png,0.7,TRUE,TRUE,3,0.57050242,red,m,0.0896,alien1,TRUE,2,0.465579179,113,1,0.7,m,0.3972,0,198,198,198,1,0.7,0.3,0.6,0.4,TRUE,,,,,,,,,,,,,,,,,,,,,,,,,,,,,,,,,
GOSH_A13,2023-11-10_12h57.09.254,two_step_task_legacy,2022.2.4,Win32,60.42661188,43,learning,1,resources/alien3_norm.png,0.6,resources/alien4_norm.png,0.4,TRUE,TRUE,2,0.753187316,purple,m,0.1997,alien4,TRUE,3,0.950195464,113,0,0.4,m,0.8596,0,199,199,199,1,0.7,0.3,0.6,0.4,FALSE,,,,,,,,,,,,,,,,,,,,,,,,,,,,,,,,,
GOSH_A13,2023-11-10_12h57.09.254,two_step_task_legacy,2022.2.4,Win32,60.42661188,43,learning,0,resources/alien4_norm.png,0.4,resources/alien3_norm.png,0.6,TRUE,TRUE,2,0.536265222,purple,x,0.4046,alien3,TRUE,2,0.01980859,114,1,0.6,m,0.5674,0,200,200,200,1,0.7,0.3,0.6,0.4,TRUE,,,,,,,,,,,,,,,,,,,,,,,,,,,,,,,,,
GOSH_A13,2023-11-10_12h57.09.254,two_step_task_legacy,2022.2.4,Win32,60.42661188,43,learning,0,resources/alien4_norm.png,0.4,resources/alien3_norm.png,0.6,TRUE,TRUE,2,0.342113597,purple,x,0.2005,alien3,TRUE,3,0.725851288,114,0,0.6,m,0.4564,0,201,201,201,1,0.7,0.3,0.6,0.4,TRUE,,,,,,,,,,,,,,,,,,,,,,,,,,,,,,,,,
GOSH_A13,2023-11-10_12h57.09.254,two_step_task_legacy,2022.2.4,Win32,60.42661188,43,learning,0,resources/alien2_norm.png,0.3,resources/alien1_norm.png,0.7,TRUE,TRUE,3,0.236625889,red,m,0.2377,alien1,TRUE,3,0.998761473,114,0,0.7,m,0.3436,0,202,202,202,1,0.7,0.3,0.6,0.4,TRUE,,,,,,,,,,,,,,,,,,,,,,,,,,,,,,,,,
GOSH_A13,2023-11-10_12h57.09.254,two_step_task_legacy,2022.2.4,Win32,60.42661188,43,learning,0,resources/alien1_norm.png,0.7,resources/alien2_norm.png,0.3,TRUE,TRUE,3,0.641184855,red,m,0.1611,alien1,TRUE,2,0.310578952,115,1,0.7,x,0.4395,0,203,203,203,1,0.7,0.3,0.6,0.4,FALSE,,,,,,,,,,,,,,,,,,,,,,,,,,,,,,,,,
GOSH_A13,2023-11-10_12h57.09.254,two_step_task_legacy,2022.2.4,Win32,60.42661188,43,learning,1,resources/alien4_norm.png,0.4,resources/alien3_norm.png,0.6,TRUE,TRUE,2,0.935894014,purple,m,0.2374,alien3,TRUE,3,0.980279607,115,0,0.6,m,0.7327,0,204,204,204,1,0.7,0.3,0.6,0.4,TRUE,,,,,,,,,,,,,,,,,,,,,,,,,,,,,,,,,
GOSH_A13,2023-11-10_12h57.09.254,two_step_task_legacy,2022.2.4,Win32,60.42661188,43,learning,0,resources/alien1_norm.png,0.7,resources/alien2_norm.png,0.3,TRUE,TRUE,3,0.331323654,red,m,0.234,alien1,TRUE,2,0.377059317,116,1,0.7,x,0.8954,0,205,205,205,1,0.7,0.3,0.6,0.4,FALSE,,,,,,,,,,,,,,,,,,,,,,,,,,,,,,,,,
GOSH_A13,2023-11-10_12h57.09.254,two_step_task_legacy,2022.2.4,Win32,60.42661188,43,learning,0,resources/alien1_norm.png,0.7,resources/alien2_norm.png,0.3,TRUE,TRUE,3,0.25415724,red,m,0.3006,alien1,TRUE,3,0.953740577,116,0,0.7,x,0.4937,0,206,206,206,1,0.7,0.3,0.6,0.4,FALSE,,,,,,,,,,,,,,,,,,,,,,,,,,,,,,,,,
GOSH_A13,2023-11-10_12h57.09.254,two_step_task_legacy,2022.2.4,Win32,60.42661188,43,learning,1,resources/alien3_norm.png,0.6,resources/alien4_norm.png,0.4,TRUE,TRUE,2,0.778834396,purple,m,0.2625,alien3,TRUE,2,0.549651235,117,1,0.6,x,0.6832,0,207,207,207,1,0.7,0.3,0.6,0.4,FALSE,,,,,,,,,,,,,,,,,,,,,,,,,,,,,,,,,
GOSH_A13,2023-11-10_12h57.09.254,two_step_task_legacy,2022.2.4,Win32,60.42661188,43,learning,0,resources/alien1_norm.png,0.7,resources/alien2_norm.png,0.3,TRUE,TRUE,3,0.434224027,red,m,0.192,alien1,TRUE,3,0.860934883,117,0,0.7,x,0.4137,0,208,208,208,1,0.7,0.3,0.6,0.4,FALSE,,,,,,,,,,,,,,,,,,,,,,,,,,,,,,,,,
GOSH_A13,2023-11-10_12h57.09.254,two_step_task_legacy,2022.2.4,Win32,60.42661188,43,learning,0,resources/alien1_norm.png,0.7,resources/alien2_norm.png,0.3,TRUE,TRUE,3,0.32846247,red,m,0.2313,alien2,TRUE,3,0.433326948,117,0,0.3,m,0.5907,0,209,209,209,1,0.7,0.3,0.6,0.4,FALSE,,,,,,,,,,,,,,,,,,,,,,,,,,,,,,,,,
GOSH_A13,2023-11-10_12h57.09.254,two_step_task_legacy,2022.2.4,Win32,60.42661188,43,learning,0,resources/alien1_norm.png,0.7,resources/alien2_norm.png,0.3,TRUE,TRUE,3,0.148828162,red,m,0.2172,alien1,TRUE,2,0.447488216,118,1,0.7,x,0.3694,0,210,210,210,1,0.7,0.3,0.6,0.4,FALSE,,,,,,,,,,,,,,,,,,,,,,,,,,,,,,,,,
GOSH_A13,2023-11-10_12h57.09.254,two_step_task_legacy,2022.2.4,Win32,60.42661188,43,learning,0,resources/alien1_norm.png,0.7,resources/alien2_norm.png,0.3,TRUE,TRUE,3,0.16089636,red,m,0.255,alien1,TRUE,2,0.177302416,119,1,0.7,x,0.4175,0,211,211,211,1,0.7,0.3,0.6,0.4,FALSE,,,,,,,,,,,,,,,,,,,,,,,,,,,,,,,,,
GOSH_A13,2023-11-10_12h57.09.254,two_step_task_legacy,2022.2.4,Win32,60.42661188,43,learning,0,resources/alien1_norm.png,0.7,resources/alien2_norm.png,0.3,TRUE,TRUE,3,0.238950995,red,m,0.2704,alien1,TRUE,2,0.439362571,120,1,0.7,x,0.3986,0,212,212,212,1,0.7,0.3,0.6,0.4,FALSE,,,,,,,,,,,,,,,,,,,,,,,,,,,,,,,,,
GOSH_A13,2023-11-10_12h57.09.254,two_step_task_legacy,2022.2.4,Win32,60.42661188,43,learning,0,resources/alien2_norm.png,0.3,resources/alien1_norm.png,0.7,TRUE,TRUE,3,0.591671688,red,m,0.2311,alien2,TRUE,2,0.190638643,121,1,0.3,x,0.451,0,213,213,213,1,0.7,0.3,0.6,0.4,TRUE,,,,,,,,,,,,,,,,,,,,,,,,,,,,,,,,,
GOSH_A13,2023-11-10_12h57.09.254,two_step_task_legacy,2022.2.4,Win32,60.42661188,43,learning,0,resources/alien1_norm.png,0.7,resources/alien2_norm.png,0.3,TRUE,TRUE,3,0.375017974,red,m,0.2535,alien1,TRUE,3,0.923711507,121,0,0.7,x,0.3544,0,214,214,214,1,0.7,0.3,0.6,0.4,FALSE,,,,,,,,,,,,,,,,,,,,,,,,,,,,,,,,,
GOSH_A13,2023-11-10_12h57.09.254,two_step_task_legacy,2022.2.4,Win32,60.42661188,43,learning,1,resources/alien3_norm.png,0.6,resources/alien4_norm.png,0.4,TRUE,TRUE,2,0.754767215,purple,m,0.2445,alien4,TRUE,3,0.554275707,121,0,0.4,m,1.2062,0,215,215,215,1,0.7,0.3,0.6,0.4,FALSE,,,,,,,,,,,,,,,,,,,,,,,,,,,,,,,,,
GOSH_A13,2023-11-10_12h57.09.254,two_step_task_legacy,2022.2.4,Win32,60.42661188,43,learning,0,resources/alien1_norm.png,0.7,resources/alien2_norm.png,0.3,TRUE,TRUE,3,0.36572183,red,m,0.1228,alien1,TRUE,2,0.660559472,122,1,0.7,x,0.4331,0,216,216,216,1,0.7,0.3,0.6,0.4,FALSE,,,,,,,,,,,,,,,,,,,,,,,,,,,,,,,,,
GOSH_A13,2023-11-10_12h57.09.254,two_step_task_legacy,2022.2.4,Win32,60.42661188,43,learning,0,resources/alien1_norm.png,0.7,resources/alien2_norm.png,0.3,TRUE,TRUE,3,0.492191856,red,m,0.2769,alien1,TRUE,3,0.852054721,122,0,0.7,x,0.4659,0,217,217,217,1,0.7,0.3,0.6,0.4,FALSE,,,,,,,,,,,,,,,,,,,,,,,,,,,,,,,,,
GOSH_A13,2023-11-10_12h57.09.254,two_step_task_legacy,2022.2.4,Win32,60.42661188,43,learning,1,resources/alien3_norm.png,0.6,resources/alien4_norm.png,0.4,TRUE,TRUE,2,0.794486694,purple,m,0.2186,alien3,TRUE,3,0.675863592,122,0,0.6,x,1.7017,0,218,218,218,1,0.7,0.3,0.6,0.4,FALSE,,,,,,,,,,,,,,,,,,,,,,,,,,,,,,,,,
GOSH_A13,2023-11-10_12h57.09.254,two_step_task_legacy,2022.2.4,Win32,60.42661188,43,learning,1,resources/alien3_norm.png,0.6,resources/alien4_norm.png,0.4,TRUE,TRUE,2,0.786325059,purple,m,0.2447,alien3,TRUE,2,0.514632333,123,1,0.6,x,0.651,0,219,219,219,1,0.7,0.3,0.6,0.4,FALSE,,,,,,,,,,,,,,,,,,,,,,,,,,,,,,,,,
GOSH_A13,2023-11-10_12h57.09.254,two_step_task_legacy,2022.2.4,Win32,60.42661188,43,learning,1,resources/alien3_norm.png,0.6,resources/alien4_norm.png,0.4,TRUE,TRUE,2,0.702051875,purple,m,0.2339,alien3,TRUE,2,0.134222635,124,1,0.6,x,0.5754,0,220,220,220,1,0.7,0.3,0.6,0.4,FALSE,,,,,,,,,,,,,,,,,,,,,,,,,,,,,,,,,
GOSH_A13,2023-11-10_12h57.09.254,two_step_task_legacy,2022.2.4,Win32,60.42661188,43,learning,0,resources/alien1_norm.png,0.7,resources/alien2_norm.png,0.3,TRUE,TRUE,3,0.179309933,red,m,0.2674,alien1,TRUE,2,0.155826945,125,1,0.7,x,0.4217,0,221,221,221,1,0.7,0.3,0.6,0.4,FALSE,,,,,,,,,,,,,,,,,,,,,,,,,,,,,,,,,
GOSH_A13,2023-11-10_12h57.09.254,two_step_task_legacy,2022.2.4,Win32,60.42661188,43,learning,0,resources/alien4_norm.png,0.4,resources/alien3_norm.png,0.6,TRUE,TRUE,2,0.126150151,purple,x,0.2485,alien3,TRUE,3,0.803424333,125,0,0.6,m,0.4666,0,222,222,222,1,0.7,0.3,0.6,0.4,TRUE,,,,,,,,,,,,,,,,,,,,,,,,,,,,,,,,,
GOSH_A13,2023-11-10_12h57.09.254,two_step_task_legacy,2022.2.4,Win32,60.42661188,43,learning,0,resources/alien2_norm.png,0.3,resources/alien1_norm.png,0.7,TRUE,TRUE,3,0.081187722,red,m,0.2006,alien1,TRUE,2,0.210551066,126,1,0.7,m,0.4469,0,223,223,223,1,0.7,0.3,0.6,0.4,TRUE,,,,,,,,,,,,,,,,,,,,,,,,,,,,,,,,,
GOSH_A13,2023-11-10_12h57.09.254,two_step_task_legacy,2022.2.4,Win32,60.42661188,43,learning,0,resources/alien1_norm.png,0.7,resources/alien2_norm.png,0.3,TRUE,TRUE,3,0.193454393,red,m,0.116,alien1,TRUE,3,0.720335094,126,0,0.7,x,0.8344,0,224,224,224,1,0.7,0.3,0.6,0.4,FALSE,,,,,,,,,,,,,,,,,,,,,,,,,,,,,,,,,
GOSH_A13,2023-11-10_12h57.09.254,two_step_task_legacy,2022.2.4,Win32,60.42661188,43,learning,0,resources/alien1_norm.png,0.7,resources/alien2_norm.png,0.3,TRUE,TRUE,3,0.332254751,red,m,0.2285,alien1,TRUE,2,0.444254948,127,1,0.7,x,0.3733,0,225,225,225,1,0.7,0.3,0.6,0.4,FALSE,,,,,,,,,,,,,,,,,,,,,,,,,,,,,,,,,
GOSH_A13,2023-11-10_12h57.09.254,two_step_task_legacy,2022.2.4,Win32,60.42661188,43,learning,0,resources/alien1_norm.png,0.7,resources/alien2_norm.png,0.3,TRUE,TRUE,3,0.14208746,red,m,1.0032,alien1,TRUE,2,0.515530924,128,1,0.7,x,0.416,0,226,226,226,1,0.7,0.3,0.6,0.4,FALSE,,,,,,,,,,,,,,,,,,,,,,,,,,,,,,,,,
GOSH_A13,2023-11-10_12h57.09.254,two_step_task_legacy,2022.2.4,Win32,60.42661188,43,learning,0,resources/alien2_norm.png,0.3,resources/alien1_norm.png,0.7,TRUE,TRUE,3,0.256305444,red,m,0.2478,alien1,TRUE,2,0.424530707,129,1,0.7,m,0.601,0,227,227,227,1,0.7,0.3,0.6,0.4,TRUE,,,,,,,,,,,,,,,,,,,,,,,,,,,,,,,,,
GOSH_A13,2023-11-10_12h57.09.254,two_step_task_legacy,2022.2.4,Win32,60.42661188,43,learning,0,resources/alien2_norm.png,0.3,resources/alien1_norm.png,0.7,TRUE,TRUE,3,0.238147863,red,m,0.651,alien1,TRUE,2,0.473308463,130,1,0.7,m,0.5682,0,228,228,228,1,0.7,0.3,0.6,0.4,TRUE,,,,,,,,,,,,,,,,,,,,,,,,,,,,,,,,,
GOSH_A13,2023-11-10_12h57.09.254,two_step_task_legacy,2022.2.4,Win32,60.42661188,43,learning,0,resources/alien2_norm.png,0.3,resources/alien1_norm.png,0.7,TRUE,TRUE,3,0.275750281,red,m,0.3842,alien1,TRUE,2,0.498149186,131,1,0.7,m,0.3951,0,229,229,229,1,0.7,0.3,0.6,0.4,TRUE,,,,,,,,,,,,,,,,,,,,,,,,,,,,,,,,,
GOSH_A13,2023-11-10_12h57.09.254,two_step_task_legacy,2022.2.4,Win32,60.42661188,43,learning,0,resources/alien2_norm.png,0.3,resources/alien1_norm.png,0.7,TRUE,TRUE,3,0.515817849,red,m,0.1823,alien1,TRUE,2,0.203516461,132,1,0.7,m,0.501,0,230,230,230,1,0.7,0.3,0.6,0.4,TRUE,,,,,,,,,,,,,,,,,,,,,,,,,,,,,,,,,
GOSH_A13,2023-11-10_12h57.09.254,two_step_task_legacy,2022.2.4,Win32,60.42661188,43,learning,0,resources/alien1_norm.png,0.7,resources/alien2_norm.png,0.3,TRUE,TRUE,3,0.606804153,red,m,0.238,alien1,TRUE,2,0.363453143,133,1,0.7,x,0.5509,0,231,231,231,1,0.7,0.3,0.6,0.4,FALSE,,,,,,,,,,,,,,,,,,,,,,,,,,,,,,,,,
GOSH_A13,2023-11-10_12h57.09.254,two_step_task_legacy,2022.2.4,Win32,60.42661188,43,learning,0,resources/alien2_norm.png,0.3,resources/alien1_norm.png,0.7,TRUE,TRUE,3,0.320457528,red,m,0.2446,alien1,TRUE,2,0.557807029,134,1,0.7,m,0.4555,0,232,232,232,1,0.7,0.3,0.6,0.4,TRUE,,,,,,,,,,,,,,,,,,,,,,,,,,,,,,,,,
GOSH_A13,2023-11-10_12h57.09.254,two_step_task_legacy,2022.2.4,Win32,60.42661188,43,learning,0,resources/alien2_norm.png,0.3,resources/alien1_norm.png,0.7,TRUE,TRUE,3,0.298047729,red,m,0.2011,alien1,TRUE,2,0.499069064,135,1,0.7,m,0.4511,0,233,233,233,1,0.7,0.3,0.6,0.4,TRUE,,,,,,,,,,,,,,,,,,,,,,,,,,,,,,,,,
GOSH_A13,2023-11-10_12h57.09.254,two_step_task_legacy,2022.2.4,Win32,60.42661188,43,learning,1,resources/alien4_norm.png,0.4,resources/alien3_norm.png,0.6,TRUE,TRUE,2,0.916930419,purple,m,0.3722,alien3,TRUE,2,0.283143266,136,1,0.6,m,0.9561,0,234,234,234,1,0.7,0.3,0.6,0.4,TRUE,,,,,,,,,,,,,,,,,,,,,,,,,,,,,,,,,
GOSH_A13,2023-11-10_12h57.09.254,two_step_task_legacy,2022.2.4,Win32,60.42661188,43,learning,1,resources/alien3_norm.png,0.6,resources/alien4_norm.png,0.4,TRUE,TRUE,2,0.951545157,purple,m,0.2645,alien3,TRUE,2,0.394452318,137,1,0.6,x,0.551,0,235,235,235,1,0.7,0.3,0.6,0.4,FALSE,,,,,,,,,,,,,,,,,,,,,,,,,,,,,,,,,
GOSH_A13,2023-11-10_12h57.09.254,two_step_task_legacy,2022.2.4,Win32,60.42661188,43,learning,0,resources/alien2_norm.png,0.3,resources/alien1_norm.png,0.7,TRUE,TRUE,3,0.211547211,red,m,0.2174,alien1,TRUE,2,0.441568749,138,1,0.7,m,0.5178,0,236,236,236,1,0.7,0.3,0.6,0.4,TRUE,,,,,,,,,,,,,,,,,,,,,,,,,,,,,,,,,
GOSH_A13,2023-11-10_12h57.09.254,two_step_task_legacy,2022.2.4,Win32,60.42661188,43,learning,0,resources/alien1_norm.png,0.7,resources/alien2_norm.png,0.3,TRUE,TRUE,3,0.532756187,red,m,0.1841,alien1,TRUE,2,0.501453814,139,1,0.7,x,0.5264,0,237,237,237,1,0.7,0.3,0.6,0.4,FALSE,,,,,,,,,,,,,,,,,,,,,,,,,,,,,,,,,
GOSH_A13,2023-11-10_12h57.09.254,two_step_task_legacy,2022.2.4,Win32,60.42661188,43,learning,1,resources/alien2_norm.png,0.3,resources/alien1_norm.png,0.7,TRUE,TRUE,3,0.858293989,red,x,0.2371,alien1,TRUE,3,0.843959155,139,0,0.7,m,0.6176,0,238,238,238,1,0.7,0.3,0.6,0.4,TRUE,,,,,,,,,,,,,,,,,,,,,,,,,,,,,,,,,
GOSH_A13,2023-11-10_12h57.09.254,two_step_task_legacy,2022.2.4,Win32,60.42661188,43,learning,1,resources/alien4_norm.png,0.4,resources/alien3_norm.png,0.6,TRUE,TRUE,2,0.836526851,purple,m,0.1,alien3,TRUE,2,0.090242874,140,1,0.6,m,0.5388,0,239,239,239,1,0.7,0.3,0.6,0.4,TRUE,,,,,,,,,,,,,,,,,,,,,,,,,,,,,,,,,
GOSH_A13,2023-11-10_12h57.09.254,two_step_task_legacy,2022.2.4,Win32,60.42661188,43,learning,0,resources/alien1_norm.png,0.7,resources/alien2_norm.png,0.3,TRUE,TRUE,3,0.19756102,red,m,0.2498,alien1,TRUE,2,0.116638448,141,1,0.7,x,0.7071,0,240,240,240,1,0.7,0.3,0.6,0.4,FALSE,,,,,,,,,,,,,,,,,,,,,,,,,,,,,,,,,
GOSH_A13,2023-11-10_12h57.09.254,two_step_task_legacy,2022.2.4,Win32,60.42661188,43,learning,0,resources/alien2_norm.png,0.3,resources/alien1_norm.png,0.7,TRUE,TRUE,3,0.324530421,red,m,0.234,alien1,TRUE,3,0.703021883,141,0,0.7,m,0.4854,0,241,241,241,1,0.7,0.3,0.6,0.4,TRUE,,,,,,,,,,,,,,,,,,,,,,,,,,,,,,,,,
GOSH_A13,2023-11-10_12h57.09.254,two_step_task_legacy,2022.2.4,Win32,60.42661188,43,learning,1,resources/alien4_norm.png,0.4,resources/alien3_norm.png,0.6,TRUE,TRUE,2,0.88613546,purple,m,0.183,alien3,TRUE,3,0.936365812,141,0,0.6,m,0.5532,0,242,242,242,1,0.7,0.3,0.6,0.4,TRUE,,,,,,,,,,,,,,,,,,,,,,,,,,,,,,,,,
GOSH_A13,2023-11-10_12h57.09.254,two_step_task_legacy,2022.2.4,Win32,60.42661188,43,learning,0,resources/alien1_norm.png,0.7,resources/alien2_norm.png,0.3,TRUE,TRUE,3,0.406497764,red,m,0.206,alien1,TRUE,2,0.10093899,142,1,0.7,x,0.6202,0,243,243,243,1,0.7,0.3,0.6,0.4,FALSE,,,,,,,,,,,,,,,,,,,,,,,,,,,,,,,,,
GOSH_A13,2023-11-10_12h57.09.254,two_step_task_legacy,2022.2.4,Win32,60.42661188,43,learning,0,resources/alien1_norm.png,0.7,resources/alien2_norm.png,0.3,TRUE,TRUE,3,0.540186403,red,m,0.1458,alien1,TRUE,2,0.429508685,143,1,0.7,x,0.4949,0,244,244,244,1,0.7,0.3,0.6,0.4,FALSE,,,,,,,,,,,,,,,,,,,,,,,,,,,,,,,,,
GOSH_A13,2023-11-10_12h57.09.254,two_step_task_legacy,2022.2.4,Win32,60.42661188,43,learning,0,resources/alien1_norm.png,0.7,resources/alien2_norm.png,0.3,TRUE,TRUE,3,0.686727677,red,m,0.2189,alien1,TRUE,2,0.406612714,144,1,0.7,x,0.4499,0,245,245,245,1,0.7,0.3,0.6,0.4,FALSE,,,,,,,,,,,,,,,,,,,,,,,,,,,,,,,,,
GOSH_A13,2023-11-10_12h57.09.254,two_step_task_legacy,2022.2.4,Win32,60.42661188,43,learning,1,resources/alien3_norm.png,0.6,resources/alien4_norm.png,0.4,TRUE,TRUE,2,0.846698775,purple,m,0.1227,alien3,TRUE,2,0.310024142,145,1,0.6,x,0.6864,0,246,246,246,1,0.7,0.3,0.6,0.4,FALSE,,,,,,,,,,,,,,,,,,,,,,,,,,,,,,,,,
GOSH_A13,2023-11-10_12h57.09.254,two_step_task_legacy,2022.2.4,Win32,60.42661188,43,learning,0,resources/alien2_norm.png,0.3,resources/alien1_norm.png,0.7,TRUE,TRUE,3,0.693010468,red,m,0.2004,alien1,TRUE,2,0.307854735,146,1,0.7,m,0.4439,0,247,247,247,1,0.7,0.3,0.6,0.4,TRUE,,,,,,,,,,,,,,,,,,,,,,,,,,,,,,,,,
GOSH_A13,2023-11-10_12h57.09.254,two_step_task_legacy,2022.2.4,Win32,60.42661188,43,learning,1,resources/alien4_norm.png,0.4,resources/alien3_norm.png,0.6,TRUE,TRUE,2,0.862875001,purple,m,0.1221,alien3,TRUE,2,0.569878103,147,1,0.6,m,0.8574,0,248,248,248,1,0.7,0.3,0.6,0.4,TRUE,,,,,,,,,,,,,,,,,,,,,,,,,,,,,,,,,
GOSH_A13,2023-11-10_12h57.09.254,two_step_task_legacy,2022.2.4,Win32,60.42661188,43,learning,0,resources/alien2_norm.png,0.3,resources/alien1_norm.png,0.7,TRUE,TRUE,3,0.169118571,red,m,0.1671,alien1,TRUE,2,0.48117289,148,1,0.7,m,0.4169,0,249,249,249,1,0.7,0.3,0.6,0.4,TRUE,,,,,,,,,,,,,,,,,,,,,,,,,,,,,,,,,
GOSH_A13,2023-11-10_12h57.09.254,two_step_task_legacy,2022.2.4,Win32,60.42661188,43,learning,1,resources/alien4_norm.png,0.4,resources/alien3_norm.png,0.6,TRUE,TRUE,2,0.849219624,purple,m,0.0836,alien3,TRUE,2,0.418829416,149,1,0.6,m,0.5723,0,250,250,250,1,0.7,0.3,0.6,0.4,TRUE,,,,,,,,,,,,,,,,,,,,,,,,,,,,,,,,,
GOSH_A13,2023-11-10_12h57.09.254,two_step_task_legacy,2022.2.4,Win32,60.42661188,43,learning,0,resources/alien1_norm.png,0.7,resources/alien2_norm.png,0.3,TRUE,TRUE,3,0.501936817,red,m,0.4114,alien1,TRUE,2,0.435996952,150,1,0.7,x,0.4499,0,251,251,251,1,0.7,0.3,0.6,0.4,FALSE,,,,,,,,,,,,,,,,,,,,,,,,,,,,,,,,,
GOSH_A13,2023-11-10_12h57.09.254,two_step_task_legacy,2022.2.4,Win32,60.42661188,43,learning,1,resources/alien4_norm.png,0.4,resources/alien3_norm.png,0.6,TRUE,TRUE,2,0.962372673,purple,m,0.2505,alien3,TRUE,3,0.708342454,150,0,0.6,m,0.4438,0,252,252,252,1,0.7,0.3,0.6,0.4,TRUE,,,,,,,,,,,,,,,,,,,,,,,,,,,,,,,,,
GOSH_A13,2023-11-10_12h57.09.254,two_step_task_legacy,2022.2.4,Win32,60.42661188,43,learning,0,resources/alien1_norm.png,0.7,resources/alien2_norm.png,0.3,TRUE,TRUE,3,0.617885097,red,m,0.2782,alien1,TRUE,2,0.588291257,151,1,0.7,x,0.466,0,253,253,253,1,0.7,0.3,0.6,0.4,FALSE,,,,,,,,,,,,,,,,,,,,,,,,,,,,,,,,,
GOSH_A13,2023-11-10_12h57.09.254,two_step_task_legacy,2022.2.4,Win32,60.42661188,43,learning,0,resources/alien2_norm.png,0.3,resources/alien1_norm.png,0.7,TRUE,TRUE,3,0.030588992,red,m,0.3063,alien1,TRUE,2,0.206803518,152,1,0.7,m,0.3841,0,254,254,254,1,0.7,0.3,0.6,0.4,TRUE,,,,,,,,,,,,,,,,,,,,,,,,,,,,,,,,,
GOSH_A13,2023-11-10_12h57.09.254,two_step_task_legacy,2022.2.4,Win32,60.42661188,43,learning,0,resources/alien1_norm.png,0.7,resources/alien2_norm.png,0.3,TRUE,TRUE,3,0.236860044,red,m,0.3386,alien1,TRUE,2,0.511037264,153,1,0.7,x,0.4491,0,255,255,255,1,0.7,0.3,0.6,0.4,FALSE,,,,,,,,,,,,,,,,,,,,,,,,,,,,,,,,,
GOSH_A13,2023-11-10_12h57.09.254,two_step_task_legacy,2022.2.4,Win32,60.42661188,43,learning,1,resources/alien3_norm.png,0.6,resources/alien4_norm.png,0.4,TRUE,TRUE,2,0.78783831,purple,m,0.2613,alien3,TRUE,3,0.657522784,153,0,0.6,x,0.5501,0,256,256,256,1,0.7,0.3,0.6,0.4,FALSE,,,,,,,,,,,,,,,,,,,,,,,,,,,,,,,,,
GOSH_A13,2023-11-10_12h57.09.254,two_step_task_legacy,2022.2.4,Win32,60.42661188,43,learning,0,resources/alien2_norm.png,0.3,resources/alien1_norm.png,0.7,TRUE,TRUE,3,0.263618366,red,m,0.1702,alien1,TRUE,2,0.30350216,154,1,0.7,m,0.4895,0,257,257,257,1,0.7,0.3,0.6,0.4,TRUE,,,,,,,,,,,,,,,,,,,,,,,,,,,,,,,,,
GOSH_A13,2023-11-10_12h57.09.254,two_step_task_legacy,2022.2.4,Win32,60.42661188,43,learning,0,resources/alien2_norm.png,0.3,resources/alien1_norm.png,0.7,TRUE,TRUE,3,0.388274005,red,m,0.3623,alien1,TRUE,3,0.792504894,154,0,0.7,m,0.4228,0,258,258,258,1,0.7,0.3,0.6,0.4,TRUE,,,,,,,,,,,,,,,,,,,,,,,,,,,,,,,,,
GOSH_A13,2023-11-10_12h57.09.254,two_step_task_legacy,2022.2.4,Win32,60.42661188,43,learning,0,resources/alien2_norm.png,0.3,resources/alien1_norm.png,0.7,TRUE,TRUE,3,0.451795441,red,m,0.2332,alien1,TRUE,2,0.215816326,155,1,0.7,m,0.4055,0,259,259,259,1,0.7,0.3,0.6,0.4,TRUE,,,,,,,,,,,,,,,,,,,,,,,,,,,,,,,,,
GOSH_A13,2023-11-10_12h57.09.254,two_step_task_legacy,2022.2.4,Win32,60.42661188,43,learning,1,resources/alien3_norm.png,0.6,resources/alien4_norm.png,0.4,TRUE,TRUE,2,0.995297876,purple,m,0.2388,alien3,TRUE,2,0.457426994,156,1,0.6,x,0.7268,0,260,260,260,1,0.7,0.3,0.6,0.4,FALSE,,,,,,,,,,,,,,,,,,,,,,,,,,,,,,,,,
GOSH_A13,2023-11-10_12h57.09.254,two_step_task_legacy,2022.2.4,Win32,60.42661188,43,learning,0,resources/alien1_norm.png,0.7,resources/alien2_norm.png,0.3,TRUE,TRUE,3,0.518120415,red,m,0.2326,alien1,TRUE,3,0.906167756,156,0,0.7,x,0.5326,0,261,261,261,1,0.7,0.3,0.6,0.4,FALSE,,,,,,,,,,,,,,,,,,,,,,,,,,,,,,,,,
GOSH_A13,2023-11-10_12h57.09.254,two_step_task_legacy,2022.2.4,Win32,60.42661188,43,learning,1,resources/alien4_norm.png,0.4,resources/alien3_norm.png,0.6,TRUE,TRUE,2,0.733744364,purple,m,0.2006,alien3,TRUE,2,0.287687789,157,1,0.6,m,0.4668,0,262,262,262,1,0.7,0.3,0.6,0.4,TRUE,,,,,,,,,,,,,,,,,,,,,,,,,,,,,,,,,
GOSH_A13,2023-11-10_12h57.09.254,two_step_task_legacy,2022.2.4,Win32,60.42661188,43,learning,1,resources/alien4_norm.png,0.4,resources/alien3_norm.png,0.6,TRUE,TRUE,2,0.855824847,purple,m,0.2165,alien3,TRUE,2,0.025909731,158,1,0.6,m,0.4571,0,263,263,263,1,0.7,0.3,0.6,0.4,TRUE,,,,,,,,,,,,,,,,,,,,,,,,,,,,,,,,,
GOSH_A13,2023-11-10_12h57.09.254,two_step_task_legacy,2022.2.4,Win32,60.42661188,43,learning,0,resources/alien1_norm.png,0.7,resources/alien2_norm.png,0.3,TRUE,TRUE,3,0.041249018,red,m,0.1812,alien1,TRUE,2,0.67685707,159,1,0.7,x,0.5334,0,264,264,264,1,0.7,0.3,0.6,0.4,FALSE,,,,,,,,,,,,,,,,,,,,,,,,,,,,,,,,,
GOSH_A13,2023-11-10_12h57.09.254,two_step_task_legacy,2022.2.4,Win32,60.42661188,43,learning,0,resources/alien2_norm.png,0.3,resources/alien1_norm.png,0.7,TRUE,TRUE,3,0.664634592,red,m,0.2677,alien1,TRUE,3,0.738278238,159,0,0.7,m,0.4625,0,265,265,265,1,0.7,0.3,0.6,0.4,TRUE,,,,,,,,,,,,,,,,,,,,,,,,,,,,,,,,,
GOSH_A13,2023-11-10_12h57.09.254,two_step_task_legacy,2022.2.4,Win32,60.42661188,43,learning,0,resources/alien1_norm.png,0.7,resources/alien2_norm.png,0.3,TRUE,TRUE,3,0.251745026,red,m,0.251,alien1,TRUE,3,0.980706338,159,0,0.7,x,0.5174,0,266,266,266,1,0.7,0.3,0.6,0.4,FALSE,,,,,,,,,,,,,,,,,,,,,,,,,,,,,,,,,
GOSH_A13,2023-11-10_12h57.09.254,two_step_task_legacy,2022.2.4,Win32,60.42661188,43,learning,1,resources/alien4_norm.png,0.4,resources/alien3_norm.png,0.6,TRUE,TRUE,2,0.755377826,purple,m,0.3231,alien3,TRUE,2,0.44742683,160,1,0.6,m,0.4865,0,267,267,267,1,0.7,0.3,0.6,0.4,TRUE,,,,,,,,,,,,,,,,,,,,,,,,,,,,,,,,,
GOSH_A13,2023-11-10_12h57.09.254,two_step_task_legacy,2022.2.4,Win32,60.42661188,43,learning,0,resources/alien4_norm.png,0.4,resources/alien3_norm.png,0.6,TRUE,TRUE,2,0.627037296,purple,x,0.2204,alien3,TRUE,2,0.181758521,161,1,0.6,m,0.5292,0,268,268,268,1,0.7,0.3,0.6,0.4,TRUE,,,,,,,,,,,,,,,,,,,,,,,,,,,,,,,,,
GOSH_A13,2023-11-10_12h57.09.254,two_step_task_legacy,2022.2.4,Win32,60.42661188,43,learning,0,resources/alien3_norm.png,0.6,resources/alien4_norm.png,0.4,TRUE,TRUE,2,0.206813899,purple,x,0.2494,alien3,TRUE,2,0.432817275,162,1,0.6,x,0.4838,0,269,269,269,1,0.7,0.3,0.6,0.4,FALSE,,,,,,,,,,,,,,,,,,,,,,,,,,,,,,,,,
GOSH_A13,2023-11-10_12h57.09.254,two_step_task_legacy,2022.2.4,Win32,60.42661188,43,learning,0,resources/alien4_norm.png,0.4,resources/alien3_norm.png,0.6,TRUE,TRUE,2,0.542150952,purple,x,0.2331,alien3,TRUE,2,0.167688466,163,1,0.6,m,0.4412,0,270,270,270,1,0.7,0.3,0.6,0.4,TRUE,,,,,,,,,,,,,,,,,,,,,,,,,,,,,,,,,
GOSH_A13,2023-11-10_12h57.09.254,two_step_task_legacy,2022.2.4,Win32,60.42661188,43,learning,1,resources/alien1_norm.png,0.7,resources/alien2_norm.png,0.3,TRUE,TRUE,3,0.891507419,red,x,0.199,alien1,TRUE,2,0.329938126,164,1,0.7,x,0.5627,0,271,271,271,1,0.7,0.3,0.6,0.4,FALSE,,,,,,,,,,,,,,,,,,,,,,,,,,,,,,,,,
GOSH_A13,2023-11-10_12h57.09.254,two_step_task_legacy,2022.2.4,Win32,60.42661188,43,learning,0,resources/alien1_norm.png,0.7,resources/alien2_norm.png,0.3,TRUE,TRUE,3,0.324217187,red,m,0.2154,alien1,TRUE,2,0.087472566,165,1,0.7,x,0.4205,0,272,272,272,1,0.7,0.3,0.6,0.4,FALSE,,,,,,,,,,,,,,,,,,,,,,,,,,,,,,,,,
GOSH_A13,2023-11-10_12h57.09.254,two_step_task_legacy,2022.2.4,Win32,60.42661188,43,learning,0,resources/alien1_norm.png,0.7,resources/alien2_norm.png,0.3,TRUE,TRUE,3,0.268603325,red,m,0.2241,alien1,TRUE,2,0.526569346,166,1,0.7,x,0.3464,0,273,273,273,1,0.7,0.3,0.6,0.4,FALSE,,,,,,,,,,,,,,,,,,,,,,,,,,,,,,,,,
GOSH_A13,2023-11-10_12h57.09.254,two_step_task_legacy,2022.2.4,Win32,60.42661188,43,learning,0,resources/alien1_norm.png,0.7,resources/alien2_norm.png,0.3,TRUE,TRUE,3,0.064452865,red,m,0.3871,alien1,TRUE,2,0.348351337,167,1,0.7,x,0.9415,0,274,274,274,1,0.7,0.3,0.6,0.4,FALSE,,,,,,,,,,,,,,,,,,,,,,,,,,,,,,,,,
GOSH_A13,2023-11-10_12h57.09.254,two_step_task_legacy,2022.2.4,Win32,60.42661188,43,learning,1,resources/alien3_norm.png,0.6,resources/alien4_norm.png,0.4,TRUE,TRUE,2,0.715676665,purple,m,0.2332,alien3,TRUE,3,0.729303876,167,0,0.6,x,0.4836,0,275,275,275,1,0.7,0.3,0.6,0.4,FALSE,,,,,,,,,,,,,,,,,,,,,,,,,,,,,,,,,
GOSH_A13,2023-11-10_12h57.09.254,two_step_task_legacy,2022.2.4,Win32,60.42661188,43,learning,0,resources/alien2_norm.png,0.3,resources/alien1_norm.png,0.7,TRUE,TRUE,3,0.155138035,red,m,0.1441,alien1,TRUE,2,0.468733062,168,1,0.7,m,0.4365,0,276,276,276,1,0.7,0.3,0.6,0.4,TRUE,,,,,,,,,,,,,,,,,,,,,,,,,,,,,,,,,
GOSH_A13,2023-11-10_12h57.09.254,two_step_task_legacy,2022.2.4,Win32,60.42661188,43,learning,0,resources/alien2_norm.png,0.3,resources/alien1_norm.png,0.7,TRUE,TRUE,3,0.520899276,red,m,0.2338,alien1,TRUE,2,0.460790816,169,1,0.7,m,0.4561,0,277,277,277,1,0.7,0.3,0.6,0.4,TRUE,,,,,,,,,,,,,,,,,,,,,,,,,,,,,,,,,
GOSH_A13,2023-11-10_12h57.09.254,two_step_task_legacy,2022.2.4,Win32,60.42661188,43,learning,0,resources/alien2_norm.png,0.3,resources/alien1_norm.png,0.7,TRUE,TRUE,3,0.484101837,red,m,0.9282,alien1,TRUE,3,0.73075148,169,0,0.7,m,0.4292,0,278,278,278,1,0.7,0.3,0.6,0.4,TRUE,,,,,,,,,,,,,,,,,,,,,,,,,,,,,,,,,
GOSH_A13,2023-11-10_12h57.09.254,two_step_task_legacy,2022.2.4,Win32,60.42661188,43,learning,1,resources/alien3_norm.png,0.6,resources/alien4_norm.png,0.4,TRUE,TRUE,2,0.913146634,purple,m,0.2356,alien3,TRUE,3,0.608792279,169,0,0.6,x,0.6001,0,279,279,279,1,0.7,0.3,0.6,0.4,FALSE,,,,,,,,,,,,,,,,,,,,,,,,,,,,,,,,,
GOSH_A13,2023-11-10_12h57.09.254,two_step_task_legacy,2022.2.4,Win32,60.42661188,43,learning,0,resources/alien1_norm.png,0.7,resources/alien2_norm.png,0.3,TRUE,TRUE,3,0.306305913,red,m,0.1093,alien1,TRUE,3,0.881499792,169,0,0.7,x,0.5214,0,280,280,280,1,0.7,0.3,0.6,0.4,FALSE,,,,,,,,,,,,,,,,,,,,,,,,,,,,,,,,,
GOSH_A13,2023-11-10_12h57.09.254,two_step_task_legacy,2022.2.4,Win32,60.42661188,43,learning,0,resources/alien1_norm.png,0.7,resources/alien2_norm.png,0.3,TRUE,TRUE,3,0.047517972,red,m,0.3393,alien1,TRUE,2,0.418014708,170,1,0.7,x,0.4009,0,281,281,281,1,0.7,0.3,0.6,0.4,FALSE,,,,,,,,,,,,,,,,,,,,,,,,,,,,,,,,,
GOSH_A13,2023-11-10_12h57.09.254,two_step_task_legacy,2022.2.4,Win32,60.42661188,43,learning,0,resources/alien2_norm.png,0.3,resources/alien1_norm.png,0.7,TRUE,TRUE,3,0.068728502,red,m,0.2341,alien1,TRUE,3,0.953700013,170,0,0.7,m,0.4458,0,282,282,282,1,0.7,0.3,0.6,0.4,TRUE,,,,,,,,,,,,,,,,,,,,,,,,,,,,,,,,,
GOSH_A13,2023-11-10_12h57.09.254,two_step_task_legacy,2022.2.4,Win32,60.42661188,43,learning,0,resources/alien2_norm.png,0.3,resources/alien1_norm.png,0.7,TRUE,TRUE,3,0.683679496,red,m,0.2153,alien1,TRUE,3,0.792887756,170,0,0.7,m,0.3593,0,283,283,283,1,0.7,0.3,0.6,0.4,TRUE,,,,,,,,,,,,,,,,,,,,,,,,,,,,,,,,,
GOSH_A13,2023-11-10_12h57.09.254,two_step_task_legacy,2022.2.4,Win32,60.42661188,43,learning,1,resources/alien4_norm.png,0.4,resources/alien3_norm.png,0.6,TRUE,TRUE,2,0.999890042,purple,m,0.2255,alien3,TRUE,2,0.326845694,171,1,0.6,m,0.5273,0,284,284,284,1,0.7,0.3,0.6,0.4,TRUE,,,,,,,,,,,,,,,,,,,,,,,,,,,,,,,,,
GOSH_A13,2023-11-10_12h57.09.254,two_step_task_legacy,2022.2.4,Win32,60.42661188,43,learning,0,resources/alien2_norm.png,0.3,resources/alien1_norm.png,0.7,TRUE,TRUE,3,0.167047444,red,m,0.244,alien1,TRUE,3,0.752918568,171,0,0.7,m,0.4388,0,285,285,285,1,0.7,0.3,0.6,0.4,TRUE,,,,,,,,,,,,,,,,,,,,,,,,,,,,,,,,,
GOSH_A13,2023-11-10_12h57.09.254,two_step_task_legacy,2022.2.4,Win32,60.42661188,43,learning,0,resources/alien1_norm.png,0.7,resources/alien2_norm.png,0.3,TRUE,TRUE,3,0.476505229,red,m,0.2394,alien1,TRUE,2,0.482998223,172,1,0.7,x,0.4675,0,286,286,286,1,0.7,0.3,0.6,0.4,FALSE,,,,,,,,,,,,,,,,,,,,,,,,,,,,,,,,,
GOSH_A13,2023-11-10_12h57.09.254,two_step_task_legacy,2022.2.4,Win32,60.42661188,43,learning,0,resources/alien1_norm.png,0.7,resources/alien2_norm.png,0.3,TRUE,TRUE,3,0.08534361,red,m,0.2237,alien1,TRUE,3,0.808734949,172,0,0.7,x,0.3388,0,287,287,287,1,0.7,0.3,0.6,0.4,FALSE,,,,,,,,,,,,,,,,,,,,,,,,,,,,,,,,,
GOSH_A13,2023-11-10_12h57.09.254,two_step_task_legacy,2022.2.4,Win32,60.42661188,43,learning,0,resources/alien2_norm.png,0.3,resources/alien1_norm.png,0.7,TRUE,TRUE,3,0.172806306,red,m,0.4439,alien1,TRUE,2,0.270079452,173,1,0.7,m,0.3675,0,288,288,288,1,0.7,0.3,0.6,0.4,TRUE,,,,,,,,,,,,,,,,,,,,,,,,,,,,,,,,,
