participant,date,expName,psychopyVersion,OS,frameRate,payoff_list,phase,rare_transition,left_alien,left_probabilty,right_alien,right_probabilty,select_sp,show_alien,rocket_trans,rand_sp,planet,key_resp_exp.keys,key_resp_exp.rt,chosen_alien,select_alien,transmoney,rand_money,totalgold,trialgain,probs,key_resp_exp_alien.keys,key_resp_exp_alien.rt,loop_exp.thisRepN,loop_exp.thisTrialN,loop_exp.thisN,loop_exp.thisIndex,loop_exp.ran,p1,p2,p3,p4,flip_sides,static_probability_left,static_probability_right,key_resp_probe.keys,key_resp_probe.rt,accuracy,probe_loop.thisRepN,probe_loop.thisTrialN,probe_loop.thisN,probe_loop.thisIndex,probe_loop.ran,probe_la,probe_ra,key_resp.keys,key_resp.rt,slider.response,slider.rt,post_loop.thisRepN,post_loop.thisTrialN,post_loop.thisN,post_loop.thisIndex,post_loop.ran,text_up,pos_text_up,text_down,pos_img_left_up,left_up_img,right_up_img,left_down_img_1,left_down_img_2,right_down_img_1,right_down_img_2,size,show_slider
GOSH_A1,2023-11-09_10h55.21.039,two_step_task_legacy,2022.2.4,Win32,59.54153022,,,,,,,,,,,,,,,,,,,,,,,,,,,,,,,,,,,,,,,,,,,,,,,,,,,,,,,,,,,,,,,,,,
GOSH_A1,2023-11-09_10h55.21.039,two_step_task_legacy,2022.2.4,Win32,59.54153022,,,,,,,,,,,,,,,,,,,,,,,,,,,,,,,,,,,,,,,,,,,,,,,,,,,,,,,,,,,,,,,,,,
GOSH_A1,2023-11-09_10h55.21.039,two_step_task_legacy,2022.2.4,Win32,59.54153022,,,,,,,,,,,,,,,,,,,,,,,,,,,,,,,,,,,,,,,,,,,,,,,,,,,,,,,,,,,,,,,,,,
GOSH_A1,2023-11-09_10h55.21.039,two_step_task_legacy,2022.2.4,Win32,59.54153022,,,,,,,,,,,,,,,,,,,,,,,,,,,,,,,,,,,,,,,,,,,,,,,,,,,,,,,,,,,,,,,,,,
GOSH_A1,2023-11-09_10h55.21.039,two_step_task_legacy,2022.2.4,Win32,59.54153022,,,,,,,,,,,,,,,,,,,,,,,,,,,,,,,,,,,,,,,,,,,,,,,,,,,,,,,,,,,,,,,,,,
GOSH_A1,2023-11-09_10h55.21.039,two_step_task_legacy,2022.2.4,Win32,59.54153022,,,,,,,,,,,,,,,,,,,,,,,,,,,,,,,,,,,,,,,,,,,,,,,,,,,,,,,,,,,,,,,,,,
GOSH_A1,2023-11-09_10h55.21.039,two_step_task_legacy,2022.2.4,Win32,59.54153022,,,,,,,,,,,,,,,,,,,,,,,,,,,,,,,,,,,,,,,,,,,,,,,,,,,,,,,,,,,,,,,,,,
GOSH_A1,2023-11-09_10h55.21.039,two_step_task_legacy,2022.2.4,Win32,59.54153022,,,,,,,,,,,,,,,,,,,,,,,,,,,,,,,,,,,,,,,,,,,,,,,,,,,,,,,,,,,,,,,,,,
GOSH_A1,2023-11-09_10h55.21.039,two_step_task_legacy,2022.2.4,Win32,59.54153022,,,,,,,,,,,,,,,,,,,,,,,,,,,,,,,,,,,,,,,,,,,,,,,,,,,,,,,,,,,,,,,,,,
GOSH_A1,2023-11-09_10h55.21.039,two_step_task_legacy,2022.2.4,Win32,59.54153022,,,,,,,,,,,,,,,,,,,,,,,,,,,,,,,,,,,,,,,,,,,,,,,,,,,,,,,,,,,,,,,,,,
GOSH_A1,2023-11-09_10h55.21.039,two_step_task_legacy,2022.2.4,Win32,59.54153022,,,,,,,,,,,,,,,,,,,,,,,,,,,,,,,,,,,,,,,,,,,,,,,,,,,,,,,,,,,,,,,,,,
GOSH_A1,2023-11-09_10h55.21.039,two_step_task_legacy,2022.2.4,Win32,59.54153022,2,learning,0,resources/alien2_norm.png,0.412920416,resources/alien1_norm.png,0.601195094,TRUE,TRUE,3,0.697418351,red,m,1.0388,alien2,TRUE,2,0.323762547,1,1,0.412920416,x,0.7867,0,0,0,0,1,0.601195094,0.412920416,0.684167385,0.574881385,TRUE,,,,,,,,,,,,,,,,,,,,,,,,,,,,,,,,,
GOSH_A1,2023-11-09_10h55.21.039,two_step_task_legacy,2022.2.4,Win32,59.54153022,2,learning,1,resources/alien4_norm.png,0.598570502,resources/alien3_norm.png,0.686024818,TRUE,TRUE,2,0.824934149,purple,m,1.8906,alien3,TRUE,2,0.340001564,2,1,0.686024818,m,1.5111,0,1,1,1,1,0.625745146,0.384635186,0.686024818,0.598570502,TRUE,,,,,,,,,,,,,,,,,,,,,,,,,,,,,,,,,
GOSH_A1,2023-11-09_10h55.21.039,two_step_task_legacy,2022.2.4,Win32,59.54153022,2,learning,0,resources/alien1_norm.png,0.607315968,resources/alien2_norm.png,0.369840214,TRUE,TRUE,3,0.030970277,red,m,0.576,alien2,TRUE,3,0.485887787,2,0,0.369840214,m,0.6776,0,2,2,2,1,0.607315968,0.369840214,0.644881976,0.638671366,FALSE,,,,,,,,,,,,,,,,,,,,,,,,,,,,,,,,,
GOSH_A1,2023-11-09_10h55.21.039,two_step_task_legacy,2022.2.4,Win32,59.54153022,2,learning,0,resources/alien1_norm.png,0.553970902,resources/alien2_norm.png,0.370949282,TRUE,TRUE,3,0.512685534,red,m,0.6501,alien2,TRUE,3,0.488181772,2,0,0.370949282,m,0.8936,0,3,3,3,1,0.553970902,0.370949282,0.634096222,0.581962699,FALSE,,,,,,,,,,,,,,,,,,,,,,,,,,,,,,,,,
GOSH_A1,2023-11-09_10h55.21.039,two_step_task_legacy,2022.2.4,Win32,59.54153022,2,learning,0,resources/alien4_norm.png,0.574748429,resources/alien3_norm.png,0.641581245,TRUE,TRUE,2,0.650793117,purple,x,0.5877,alien3,TRUE,2,0.464360556,3,1,0.641581245,m,0.7416,0,4,4,4,1,0.531032286,0.403833123,0.641581245,0.574748429,TRUE,,,,,,,,,,,,,,,,,,,,,,,,,,,,,,,,,
GOSH_A1,2023-11-09_10h55.21.039,two_step_task_legacy,2022.2.4,Win32,59.54153022,2,learning,0,resources/alien3_norm.png,0.653289635,resources/alien4_norm.png,0.5733101,TRUE,TRUE,2,0.13799631,purple,x,0.3623,alien3,TRUE,3,0.860903566,3,0,0.653289635,x,0.7156,0,5,5,5,1,0.567657882,0.413108418,0.653289635,0.5733101,FALSE,,,,,,,,,,,,,,,,,,,,,,,,,,,,,,,,,
GOSH_A1,2023-11-09_10h55.21.039,two_step_task_legacy,2022.2.4,Win32,59.54153022,2,learning,0,resources/alien4_norm.png,0.526958851,resources/alien3_norm.png,0.710266348,TRUE,TRUE,2,0.034320351,purple,x,0.4305,alien3,TRUE,2,0.002442101,4,1,0.710266348,m,0.6898,0,6,6,6,1,0.583224272,0.425080565,0.710266348,0.526958851,TRUE,,,,,,,,,,,,,,,,,,,,,,,,,,,,,,,,,
GOSH_A1,2023-11-09_10h55.21.039,two_step_task_legacy,2022.2.4,Win32,59.54153022,2,learning,0,resources/alien3_norm.png,0.713974974,resources/alien4_norm.png,0.480861246,TRUE,TRUE,2,0.22742095,purple,x,0.4283,alien3,TRUE,2,0.077384849,5,1,0.713974974,x,0.6078,0,7,7,7,1,0.611992163,0.442857993,0.713974974,0.480861246,FALSE,,,,,,,,,,,,,,,,,,,,,,,,,,,,,,,,,
GOSH_A1,2023-11-09_10h55.21.039,two_step_task_legacy,2022.2.4,Win32,59.54153022,2,learning,1,resources/alien1_norm.png,0.612740558,resources/alien2_norm.png,0.431833253,TRUE,TRUE,3,0.877607678,red,x,1.2871,alien2,TRUE,2,0.083286989,6,1,0.431833253,m,1.1848,0,8,8,8,1,0.612740558,0.431833253,0.7109314,0.461218259,FALSE,,,,,,,,,,,,,,,,,,,,,,,,,,,,,,,,,
GOSH_A1,2023-11-09_10h55.21.039,two_step_task_legacy,2022.2.4,Win32,59.54153022,2,learning,0,resources/alien3_norm.png,0.702346871,resources/alien4_norm.png,0.482120856,TRUE,TRUE,2,0.535931645,purple,x,0.5871,alien3,TRUE,2,0.093126958,7,1,0.702346871,x,0.6995,0,9,9,9,1,0.608500544,0.441677248,0.702346871,0.482120856,FALSE,,,,,,,,,,,,,,,,,,,,,,,,,,,,,,,,,
GOSH_A1,2023-11-09_10h55.21.039,two_step_task_legacy,2022.2.4,Win32,59.54153022,2,learning,0,resources/alien4_norm.png,0.532346574,resources/alien3_norm.png,0.67633549,TRUE,TRUE,2,0.431904666,purple,x,1.0905,alien3,TRUE,3,0.773066012,7,0,0.67633549,m,0.6207,0,10,10,10,1,0.576141425,0.482625454,0.67633549,0.532346574,TRUE,,,,,,,,,,,,,,,,,,,,,,,,,,,,,,,,,
GOSH_A1,2023-11-09_10h55.21.039,two_step_task_legacy,2022.2.4,Win32,59.54153022,2,learning,0,resources/alien4_norm.png,0.561189193,resources/alien3_norm.png,0.664063745,TRUE,TRUE,2,0.011978824,purple,x,0.9171,alien3,TRUE,2,0.14656757,8,1,0.664063745,m,0.5951,0,11,11,11,1,0.568074544,0.493435168,0.664063745,0.561189193,TRUE,,,,,,,,,,,,,,,,,,,,,,,,,,,,,,,,,
GOSH_A1,2023-11-09_10h55.21.039,two_step_task_legacy,2022.2.4,Win32,59.54153022,2,learning,0,resources/alien4_norm.png,0.548431613,resources/alien3_norm.png,0.672411387,TRUE,TRUE,2,0.203448781,purple,x,0.3032,alien3,TRUE,2,0.417411981,9,1,0.672411387,m,0.5776,0,12,12,12,1,0.580926918,0.510599306,0.672411387,0.548431613,TRUE,,,,,,,,,,,,,,,,,,,,,,,,,,,,,,,,,
GOSH_A1,2023-11-09_10h55.21.039,two_step_task_legacy,2022.2.4,Win32,59.54153022,2,learning,0,resources/alien3_norm.png,0.663587653,resources/alien4_norm.png,0.549136269,TRUE,TRUE,2,0.482991951,purple,x,0.3405,alien3,TRUE,2,0.47289579,10,1,0.663587653,x,0.7541,0,13,13,13,1,0.600410731,0.440226577,0.663587653,0.549136269,FALSE,,,,,,,,,,,,,,,,,,,,,,,,,,,,,,,,,
GOSH_A1,2023-11-09_10h55.21.039,two_step_task_legacy,2022.2.4,Win32,59.54153022,2,learning,0,resources/alien3_norm.png,0.666002255,resources/alien4_norm.png,0.524244528,TRUE,TRUE,2,0.45215612,purple,x,0.3146,alien3,TRUE,2,0.455146729,11,1,0.666002255,x,0.686,0,14,14,14,1,0.611788063,0.418298082,0.666002255,0.524244528,FALSE,,,,,,,,,,,,,,,,,,,,,,,,,,,,,,,,,
GOSH_A1,2023-11-09_10h55.21.039,two_step_task_legacy,2022.2.4,Win32,59.54153022,2,learning,0,resources/alien3_norm.png,0.677601938,resources/alien4_norm.png,0.531921129,TRUE,TRUE,2,0.346626088,purple,x,0.5333,alien3,TRUE,3,0.744640419,11,0,0.677601938,x,0.5694,0,15,15,15,1,0.598923528,0.389234347,0.677601938,0.531921129,FALSE,,,,,,,,,,,,,,,,,,,,,,,,,,,,,,,,,
GOSH_A1,2023-11-09_10h55.21.039,two_step_task_legacy,2022.2.4,Win32,59.54153022,2,learning,1,resources/alien3_norm.png,0.658528817,resources/alien4_norm.png,0.532800124,TRUE,TRUE,2,0.943350564,purple,m,0.2977,alien3,TRUE,2,0.063768789,12,1,0.658528817,x,0.8761,0,16,16,16,1,0.573752737,0.442467063,0.658528817,0.532800124,FALSE,,,,,,,,,,,,,,,,,,,,,,,,,,,,,,,,,
GOSH_A1,2023-11-09_10h55.21.039,two_step_task_legacy,2022.2.4,Win32,59.54153022,2,learning,0,resources/alien1_norm.png,0.566603312,resources/alien2_norm.png,0.428427973,TRUE,TRUE,3,0.533478786,red,m,0.321,alien2,TRUE,2,0.027167632,13,1,0.428427973,m,0.5869,0,17,17,17,1,0.566603312,0.428427973,0.631175471,0.552412586,FALSE,,,,,,,,,,,,,,,,,,,,,,,,,,,,,,,,,
GOSH_A1,2023-11-09_10h55.21.039,two_step_task_legacy,2022.2.4,Win32,59.54153022,2,learning,1,resources/alien3_norm.png,0.604740096,resources/alien4_norm.png,0.565590497,TRUE,TRUE,2,0.895084312,purple,m,0.4199,alien3,TRUE,3,0.910028463,13,0,0.604740096,x,0.6535,0,18,18,18,1,0.582114013,0.425646271,0.604740096,0.565590497,FALSE,,,,,,,,,,,,,,,,,,,,,,,,,,,,,,,,,
GOSH_A1,2023-11-09_10h55.21.039,two_step_task_legacy,2022.2.4,Win32,59.54153022,2,learning,0,resources/alien4_norm.png,0.567031065,resources/alien3_norm.png,0.572334771,TRUE,TRUE,2,0.441683708,purple,x,0.4511,alien3,TRUE,2,0.220049576,14,1,0.572334771,m,0.6008,0,19,19,19,1,0.561351389,0.373328893,0.572334771,0.567031065,TRUE,,,,,,,,,,,,,,,,,,,,,,,,,,,,,,,,,
GOSH_A1,2023-11-09_10h55.21.039,two_step_task_legacy,2022.2.4,Win32,59.54153022,2,learning,0,resources/alien2_norm.png,0.418292814,resources/alien1_norm.png,0.600913787,TRUE,TRUE,3,0.306482199,red,m,0.2663,alien2,TRUE,2,0.281024479,15,1,0.418292814,x,0.5596,0,20,20,20,1,0.600913787,0.418292814,0.559110428,0.54814434,TRUE,,,,,,,,,,,,,,,,,,,,,,,,,,,,,,,,,
GOSH_A1,2023-11-09_10h55.21.039,two_step_task_legacy,2022.2.4,Win32,59.54153022,2,learning,0,resources/alien2_norm.png,0.422500338,resources/alien1_norm.png,0.583272345,TRUE,TRUE,3,0.530588336,red,m,0.3545,alien2,TRUE,2,0.067585685,16,1,0.422500338,x,0.6609,0,21,21,21,1,0.583272345,0.422500338,0.568809314,0.566532625,TRUE,,,,,,,,,,,,,,,,,,,,,,,,,,,,,,,,,
GOSH_A1,2023-11-09_10h55.21.039,two_step_task_legacy,2022.2.4,Win32,59.54153022,2,learning,0,resources/alien1_norm.png,0.609961034,resources/alien2_norm.png,0.394003844,TRUE,TRUE,3,0.686474231,red,m,0.425,alien2,TRUE,2,0.369403824,17,1,0.394003844,m,0.4906,0,22,22,22,1,0.609961034,0.394003844,0.55652811,0.561719482,FALSE,,,,,,,,,,,,,,,,,,,,,,,,,,,,,,,,,
GOSH_A1,2023-11-09_10h55.21.039,two_step_task_legacy,2022.2.4,Win32,59.54153022,2,learning,0,resources/alien2_norm.png,0.394651748,resources/alien1_norm.png,0.590272679,TRUE,TRUE,3,0.542421518,red,m,0.2181,alien2,TRUE,2,0.268763609,18,1,0.394651748,x,0.4498,0,23,23,23,1,0.590272679,0.394651748,0.555724238,0.544931665,TRUE,,,,,,,,,,,,,,,,,,,,,,,,,,,,,,,,,
GOSH_A1,2023-11-09_10h55.21.039,two_step_task_legacy,2022.2.4,Win32,59.54153022,2,learning,1,resources/alien3_norm.png,0.576639227,resources/alien4_norm.png,0.55069953,TRUE,TRUE,2,0.710900603,purple,m,0.3329,alien3,TRUE,2,0.421704364,19,1,0.576639227,x,0.5263,0,24,24,24,1,0.605617399,0.431176562,0.576639227,0.55069953,FALSE,,,,,,,,,,,,,,,,,,,,,,,,,,,,,,,,,
GOSH_A1,2023-11-09_10h55.21.039,two_step_task_legacy,2022.2.4,Win32,59.54153022,2,learning,0,resources/alien1_norm.png,0.613091185,resources/alien2_norm.png,0.420786543,TRUE,TRUE,3,0.074286199,red,m,0.5148,alien2,TRUE,2,0.26156154,20,1,0.420786543,m,0.5661,0,25,25,25,1,0.613091185,0.420786543,0.557257773,0.534624757,FALSE,,,,,,,,,,,,,,,,,,,,,,,,,,,,,,,,,
GOSH_A1,2023-11-09_10h55.21.039,two_step_task_legacy,2022.2.4,Win32,59.54153022,2,learning,1,resources/alien4_norm.png,0.545850614,resources/alien3_norm.png,0.576094467,TRUE,TRUE,2,0.811145022,purple,m,0.3667,alien3,TRUE,2,0.362402179,21,1,0.576094467,m,0.5756,0,26,26,26,1,0.595872609,0.450532133,0.576094467,0.545850614,TRUE,,,,,,,,,,,,,,,,,,,,,,,,,,,,,,,,,
GOSH_A1,2023-11-09_10h55.21.039,two_step_task_legacy,2022.2.4,Win32,59.54153022,2,learning,0,resources/alien2_norm.png,0.477668773,resources/alien1_norm.png,0.643406653,TRUE,TRUE,3,0.091926398,red,m,0.3257,alien2,TRUE,2,0.246669227,22,1,0.477668773,x,0.5387,0,27,27,27,1,0.643406653,0.477668773,0.592199407,0.511001288,TRUE,,,,,,,,,,,,,,,,,,,,,,,,,,,,,,,,,
GOSH_A1,2023-11-09_10h55.21.039,two_step_task_legacy,2022.2.4,Win32,59.54153022,2,learning,0,resources/alien2_norm.png,0.482589761,resources/alien1_norm.png,0.627060866,TRUE,TRUE,3,0.463889047,red,m,0.3363,alien2,TRUE,3,0.960235803,22,0,0.482589761,x,0.5614,0,28,28,28,1,0.627060866,0.482589761,0.634639671,0.503306501,TRUE,,,,,,,,,,,,,,,,,,,,,,,,,,,,,,,,,
GOSH_A1,2023-11-09_10h55.21.039,two_step_task_legacy,2022.2.4,Win32,59.54153022,2,learning,1,resources/alien2_norm.png,0.473630358,resources/alien1_norm.png,0.659503493,TRUE,TRUE,3,0.89773171,red,x,0.618,alien2,TRUE,2,0.177883892,23,1,0.473630358,x,0.7212,0,29,29,29,1,0.659503493,0.473630358,0.636367601,0.500905699,TRUE,,,,,,,,,,,,,,,,,,,,,,,,,,,,,,,,,
GOSH_A1,2023-11-09_10h55.21.039,two_step_task_legacy,2022.2.4,Win32,59.54153022,2,learning,1,resources/alien1_norm.png,0.633289649,resources/alien2_norm.png,0.501315139,TRUE,TRUE,3,0.86633874,red,x,0.2811,alien2,TRUE,3,0.511291915,23,0,0.501315139,m,0.5773,0,30,30,30,1,0.633289649,0.501315139,0.637914928,0.501224844,FALSE,,,,,,,,,,,,,,,,,,,,,,,,,,,,,,,,,
GOSH_A1,2023-11-09_10h55.21.039,two_step_task_legacy,2022.2.4,Win32,59.54153022,2,learning,0,resources/alien3_norm.png,0.634843763,resources/alien4_norm.png,0.49511204,TRUE,TRUE,2,0.624068469,purple,x,0.7258,alien3,TRUE,3,0.786834996,23,0,0.634843763,x,0.5382,0,31,31,31,1,0.601309191,0.486335384,0.634843763,0.49511204,FALSE,,,,,,,,,,,,,,,,,,,,,,,,,,,,,,,,,
GOSH_A1,2023-11-09_10h55.21.039,two_step_task_legacy,2022.2.4,Win32,59.54153022,2,learning,1,resources/alien3_norm.png,0.625739977,resources/alien4_norm.png,0.492316248,TRUE,TRUE,2,0.868469823,purple,m,0.3046,alien3,TRUE,3,0.857050395,23,0,0.625739977,x,1.0715,0,32,32,32,1,0.601010443,0.467762774,0.625739977,0.492316248,FALSE,,,,,,,,,,,,,,,,,,,,,,,,,,,,,,,,,
GOSH_A1,2023-11-09_10h55.21.039,two_step_task_legacy,2022.2.4,Win32,59.54153022,2,learning,0,resources/alien1_norm.png,0.622204761,resources/alien2_norm.png,0.465440023,TRUE,TRUE,3,0.444023067,red,m,0.2058,alien1,TRUE,2,0.605527067,24,1,0.622204761,x,0.9517,0,33,33,33,1,0.622204761,0.465440023,0.615828505,0.545653013,FALSE,,,,,,,,,,,,,,,,,,,,,,,,,,,,,,,,,
GOSH_A1,2023-11-09_10h55.21.039,two_step_task_legacy,2022.2.4,Win32,59.54153022,2,learning,0,resources/alien4_norm.png,0.495749277,resources/alien3_norm.png,0.59000377,TRUE,TRUE,2,0.046925652,purple,x,0.2832,alien4,TRUE,2,0.023815103,25,1,0.495749277,x,0.7675,0,34,34,34,1,0.627316779,0.493981228,0.59000377,0.495749277,TRUE,,,,,,,,,,,,,,,,,,,,,,,,,,,,,,,,,
GOSH_A1,2023-11-09_10h55.21.039,two_step_task_legacy,2022.2.4,Win32,59.54153022,2,learning,1,resources/alien1_norm.png,0.598288248,resources/alien2_norm.png,0.477218043,TRUE,TRUE,3,0.962192295,red,x,0.2482,alien1,TRUE,3,0.929171338,25,0,0.598288248,x,0.4991,0,35,35,35,1,0.598288248,0.477218043,0.553937559,0.524611694,FALSE,,,,,,,,,,,,,,,,,,,,,,,,,,,,,,,,,
GOSH_A1,2023-11-09_10h55.21.039,two_step_task_legacy,2022.2.4,Win32,59.54153022,2,learning,0,resources/alien3_norm.png,0.56908871,resources/alien4_norm.png,0.543066073,TRUE,TRUE,2,0.430657442,purple,x,0.3664,alien4,TRUE,2,0.380159126,26,1,0.543066073,m,0.7277,0,36,36,36,1,0.614262045,0.493000476,0.56908871,0.543066073,FALSE,,,,,,,,,,,,,,,,,,,,,,,,,,,,,,,,,
GOSH_A1,2023-11-09_10h55.21.039,two_step_task_legacy,2022.2.4,Win32,59.54153022,2,learning,1,resources/alien3_norm.png,0.558161717,resources/alien4_norm.png,0.50431812,TRUE,TRUE,2,0.956279991,purple,m,0.3949,alien4,TRUE,2,0.148240291,27,1,0.50431812,m,0.7547,0,37,37,37,1,0.604854621,0.477881014,0.558161717,0.50431812,FALSE,,,,,,,,,,,,,,,,,,,,,,,,,,,,,,,,,
GOSH_A1,2023-11-09_10h55.21.039,two_step_task_legacy,2022.2.4,Win32,59.54153022,2,learning,0,resources/alien1_norm.png,0.588574075,resources/alien2_norm.png,0.534531278,TRUE,TRUE,3,0.543698591,red,m,0.2672,alien1,TRUE,2,0.17337233,28,1,0.588574075,x,0.783,0,38,38,38,1,0.588574075,0.534531278,0.530772143,0.52797049,FALSE,,,,,,,,,,,,,,,,,,,,,,,,,,,,,,,,,
GOSH_A1,2023-11-09_10h55.21.039,two_step_task_legacy,2022.2.4,Win32,59.54153022,2,learning,1,resources/alien1_norm.png,0.595909038,resources/alien2_norm.png,0.531132777,TRUE,TRUE,3,0.748424065,red,x,0.3175,alien1,TRUE,2,0.441193686,29,1,0.595909038,x,0.6732,0,39,39,39,1,0.595909038,0.531132777,0.540735318,0.557222525,FALSE,,,,,,,,,,,,,,,,,,,,,,,,,,,,,,,,,
GOSH_A1,2023-11-09_10h55.21.039,two_step_task_legacy,2022.2.4,Win32,59.54153022,2,learning,0,resources/alien3_norm.png,0.494666279,resources/alien4_norm.png,0.583638711,TRUE,TRUE,2,0.651382734,purple,x,0.2707,alien4,TRUE,3,0.962732092,29,0,0.583638711,m,0.8046,0,40,40,40,1,0.574771467,0.540223528,0.494666279,0.583638711,FALSE,,,,,,,,,,,,,,,,,,,,,,,,,,,,,,,,,
GOSH_A1,2023-11-09_10h55.21.039,two_step_task_legacy,2022.2.4,Win32,59.54153022,2,learning,0,resources/alien2_norm.png,0.559165838,resources/alien1_norm.png,0.584272001,TRUE,TRUE,3,0.09917966,red,m,0.3896,alien1,TRUE,3,0.892800575,29,0,0.584272001,m,0.9717,0,41,41,41,1,0.584272001,0.559165838,0.50627781,0.5945859,TRUE,,,,,,,,,,,,,,,,,,,,,,,,,,,,,,,,,
GOSH_A1,2023-11-09_10h55.21.039,two_step_task_legacy,2022.2.4,Win32,59.54153022,2,learning,0,resources/alien3_norm.png,0.516590823,resources/alien4_norm.png,0.640132819,TRUE,TRUE,2,0.415011596,purple,x,0.2366,alien4,TRUE,3,0.853658596,29,0,0.640132819,m,0.7866,0,42,42,42,1,0.630034319,0.617175123,0.516590823,0.640132819,FALSE,,,,,,,,,,,,,,,,,,,,,,,,,,,,,,,,,
GOSH_A1,2023-11-09_10h55.21.039,two_step_task_legacy,2022.2.4,Win32,59.54153022,2,learning,0,resources/alien3_norm.png,0.487932716,resources/alien4_norm.png,0.607580451,TRUE,TRUE,2,0.162858319,purple,x,0.305,alien3,TRUE,2,0.133530476,30,1,0.487932716,x,0.6076,0,43,43,43,1,0.619075687,0.616003092,0.487932716,0.607580451,FALSE,,,,,,,,,,,,,,,,,,,,,,,,,,,,,,,,,
GOSH_A1,2023-11-09_10h55.21.039,two_step_task_legacy,2022.2.4,Win32,59.54153022,2,learning,0,resources/alien4_norm.png,0.572653625,resources/alien3_norm.png,0.519583753,TRUE,TRUE,2,0.210563093,purple,x,0.2832,alien3,TRUE,3,0.854931331,30,0,0.519583753,m,0.6541,0,44,44,44,1,0.605356515,0.582526972,0.519583753,0.572653625,TRUE,,,,,,,,,,,,,,,,,,,,,,,,,,,,,,,,,
GOSH_A1,2023-11-09_10h55.21.039,two_step_task_legacy,2022.2.4,Win32,59.54153022,2,learning,0,resources/alien1_norm.png,0.557081221,resources/alien2_norm.png,0.577200294,TRUE,TRUE,3,0.261162839,red,m,0.2207,alien2,TRUE,3,0.88827878,30,0,0.577200294,m,0.7525,0,45,45,45,1,0.557081221,0.577200294,0.511061951,0.574858948,FALSE,,,,,,,,,,,,,,,,,,,,,,,,,,,,,,,,,
GOSH_A1,2023-11-09_10h55.21.039,two_step_task_legacy,2022.2.4,Win32,59.54153022,2,learning,0,resources/alien2_norm.png,0.598845262,resources/alien1_norm.png,0.555291304,TRUE,TRUE,3,0.214196752,red,m,0.2379,alien1,TRUE,2,0.412124483,31,1,0.555291304,m,0.7422,0,46,46,46,1,0.555291304,0.598845262,0.532871987,0.595061916,TRUE,,,,,,,,,,,,,,,,,,,,,,,,,,,,,,,,,
GOSH_A1,2023-11-09_10h55.21.039,two_step_task_legacy,2022.2.4,Win32,59.54153022,2,learning,1,resources/alien3_norm.png,0.529726075,resources/alien4_norm.png,0.585828111,TRUE,TRUE,2,0.739978538,purple,m,0.2559,alien4,TRUE,3,0.633067186,31,0,0.585828111,m,1.0379,0,47,47,47,1,0.578601924,0.598532069,0.529726075,0.585828111,FALSE,,,,,,,,,,,,,,,,,,,,,,,,,,,,,,,,,
GOSH_A1,2023-11-09_10h55.21.039,two_step_task_legacy,2022.2.4,Win32,59.54153022,2,learning,0,resources/alien2_norm.png,0.586538679,resources/alien1_norm.png,0.542249819,TRUE,TRUE,3,0.511231496,red,m,0.1442,alien1,TRUE,3,0.961438756,31,0,0.542249819,m,0.8312,0,48,48,48,1,0.542249819,0.586538679,0.558730333,0.573653694,TRUE,,,,,,,,,,,,,,,,,,,,,,,,,,,,,,,,,
GOSH_A1,2023-11-09_10h55.21.039,two_step_task_legacy,2022.2.4,Win32,59.54153022,2,learning,0,resources/alien3_norm.png,0.622833908,resources/alien4_norm.png,0.600621292,TRUE,TRUE,2,0.208036811,purple,x,0.2435,alien3,TRUE,3,0.737067878,31,0,0.622833908,x,1.0562,0,49,49,49,1,0.519538965,0.584343304,0.622833908,0.600621292,FALSE,,,,,,,,,,,,,,,,,,,,,,,,,,,,,,,,,
GOSH_A1,2023-11-09_10h55.21.039,two_step_task_legacy,2022.2.4,Win32,59.54153022,2,learning,0,resources/alien4_norm.png,0.607356483,resources/alien3_norm.png,0.620348506,TRUE,TRUE,2,0.054550948,purple,x,0.2891,alien3,TRUE,3,0.769980127,31,0,0.620348506,m,1.4885,0,50,50,50,1,0.554572557,0.581709677,0.620348506,0.607356483,TRUE,,,,,,,,,,,,,,,,,,,,,,,,,,,,,,,,,
GOSH_A1,2023-11-09_10h55.21.039,two_step_task_legacy,2022.2.4,Win32,59.54153022,2,learning,0,resources/alien3_norm.png,0.6031703,resources/alien4_norm.png,0.607009894,TRUE,TRUE,2,0.147061816,purple,x,0.3586,alien4,TRUE,2,0.167350744,32,1,0.607009894,m,0.6733,0,51,51,51,1,0.547889004,0.612718726,0.6031703,0.607009894,FALSE,,,,,,,,,,,,,,,,,,,,,,,,,,,,,,,,,
GOSH_A1,2023-11-09_10h55.21.039,two_step_task_legacy,2022.2.4,Win32,59.54153022,2,learning,1,resources/alien1_norm.png,0.544060582,resources/alien2_norm.png,0.595407189,TRUE,TRUE,3,0.978490467,red,x,0.1912,alien1,TRUE,3,0.662430104,32,0,0.544060582,x,0.8895,0,52,52,52,1,0.544060582,0.595407189,0.557769273,0.588840226,FALSE,,,,,,,,,,,,,,,,,,,,,,,,,,,,,,,,,
GOSH_A1,2023-11-09_10h55.21.039,two_step_task_legacy,2022.2.4,Win32,59.54153022,2,learning,1,resources/alien4_norm.png,0.626166645,resources/alien3_norm.png,0.542082465,TRUE,TRUE,2,0.938573437,purple,m,0.3041,alien4,TRUE,3,0.873768154,32,0,0.626166645,x,1.4874,0,53,53,53,1,0.545266218,0.593072845,0.542082465,0.626166645,TRUE,,,,,,,,,,,,,,,,,,,,,,,,,,,,,,,,,
GOSH_A1,2023-11-09_10h55.21.039,two_step_task_legacy,2022.2.4,Win32,59.54153022,2,learning,0,resources/alien1_norm.png,0.533636761,resources/alien2_norm.png,0.617187035,TRUE,TRUE,3,0.330316124,red,m,0.4393,alien1,TRUE,2,0.349770763,33,1,0.533636761,x,0.6578,0,54,54,54,1,0.533636761,0.617187035,0.542691053,0.641639284,FALSE,,,,,,,,,,,,,,,,,,,,,,,,,,,,,,,,,
GOSH_A1,2023-11-09_10h55.21.039,two_step_task_legacy,2022.2.4,Win32,59.54153022,2,learning,0,resources/alien2_norm.png,0.642883939,resources/alien1_norm.png,0.53071874,TRUE,TRUE,3,0.411254333,red,m,0.4006,alien1,TRUE,3,0.601378877,33,0,0.53071874,m,0.5785,0,55,55,55,1,0.53071874,0.642883939,0.540688793,0.613630346,TRUE,,,,,,,,,,,,,,,,,,,,,,,,,,,,,,,,,
GOSH_A1,2023-11-09_10h55.21.039,two_step_task_legacy,2022.2.4,Win32,59.54153022,2,learning,0,resources/alien3_norm.png,0.506133513,resources/alien4_norm.png,0.604506511,TRUE,TRUE,2,0.029538151,purple,x,0.5043,alien3,TRUE,3,0.996052906,33,0,0.506133513,x,1.3921,0,56,56,56,1,0.508540082,0.642374716,0.506133513,0.604506511,FALSE,,,,,,,,,,,,,,,,,,,,,,,,,,,,,,,,,
GOSH_A1,2023-11-09_10h55.21.039,two_step_task_legacy,2022.2.4,Win32,59.54153022,2,learning,0,resources/alien4_norm.png,0.600516429,resources/alien3_norm.png,0.531679577,TRUE,TRUE,2,0.577708413,purple,x,0.2059,alien4,TRUE,2,0.526940932,34,1,0.600516429,x,0.8555,0,57,57,57,1,0.519337081,0.646260215,0.531679577,0.600516429,TRUE,,,,,,,,,,,,,,,,,,,,,,,,,,,,,,,,,
GOSH_A1,2023-11-09_10h55.21.039,two_step_task_legacy,2022.2.4,Win32,59.54153022,2,learning,0,resources/alien3_norm.png,0.525737079,resources/alien4_norm.png,0.596579648,TRUE,TRUE,2,0.178110507,purple,x,0.6689,alien4,TRUE,3,0.978293576,34,0,0.596579648,m,0.6574,0,58,58,58,1,0.515119314,0.644987866,0.525737079,0.596579648,FALSE,,,,,,,,,,,,,,,,,,,,,,,,,,,,,,,,,
GOSH_A1,2023-11-09_10h55.21.039,two_step_task_legacy,2022.2.4,Win32,59.54153022,2,learning,1,resources/alien2_norm.png,0.621644772,resources/alien1_norm.png,0.482207563,TRUE,TRUE,3,0.927834061,red,x,0.2793,alien1,TRUE,2,0.242680211,35,1,0.482207563,m,2.14,0,59,59,59,1,0.482207563,0.621644772,0.535111942,0.600256718,TRUE,,,,,,,,,,,,,,,,,,,,,,,,,,,,,,,,,
GOSH_A1,2023-11-09_10h55.21.039,two_step_task_legacy,2022.2.4,Win32,59.54153022,2,learning,1,resources/alien2_norm.png,0.66669687,resources/alien1_norm.png,0.450055305,TRUE,TRUE,3,0.917840031,red,x,0.5096,alien1,TRUE,3,0.502641598,35,0,0.450055305,m,0.6709,0,60,60,60,1,0.450055305,0.66669687,0.514338736,0.607153047,TRUE,,,,,,,,,,,,,,,,,,,,,,,,,,,,,,,,,
GOSH_A1,2023-11-09_10h55.21.039,two_step_task_legacy,2022.2.4,Win32,59.54153022,2,learning,0,resources/alien1_norm.png,0.419368289,resources/alien2_norm.png,0.658101899,TRUE,TRUE,3,0.155219591,red,m,0.6063,alien2,TRUE,2,0.453372696,36,1,0.658101899,m,0.7676,0,61,61,61,1,0.419368289,0.658101899,0.471642866,0.583823796,FALSE,,,,,,,,,,,,,,,,,,,,,,,,,,,,,,,,,
GOSH_A1,2023-11-09_10h55.21.039,two_step_task_legacy,2022.2.4,Win32,59.54153022,2,learning,1,resources/alien2_norm.png,0.679582459,resources/alien1_norm.png,0.476081837,TRUE,TRUE,3,0.87987312,red,x,0.3704,alien2,TRUE,2,0.162020056,37,1,0.679582459,x,0.9004,0,62,62,62,1,0.476081837,0.679582459,0.495383864,0.577391808,TRUE,,,,,,,,,,,,,,,,,,,,,,,,,,,,,,,,,
GOSH_A1,2023-11-09_10h55.21.039,two_step_task_legacy,2022.2.4,Win32,59.54153022,2,learning,0,resources/alien3_norm.png,0.492482455,resources/alien4_norm.png,0.584382346,TRUE,TRUE,2,0.426691728,purple,x,0.2677,alien3,TRUE,2,0.02245073,38,1,0.492482455,x,0.7867,0,63,63,63,1,0.46564135,0.656019472,0.492482455,0.584382346,FALSE,,,,,,,,,,,,,,,,,,,,,,,,,,,,,,,,,
GOSH_A1,2023-11-09_10h55.21.039,two_step_task_legacy,2022.2.4,Win32,59.54153022,2,learning,0,resources/alien4_norm.png,0.579903099,resources/alien3_norm.png,0.473090091,TRUE,TRUE,2,0.407566865,purple,x,0.2116,alien3,TRUE,3,0.568691014,38,0,0.473090091,m,0.8337,0,64,64,64,1,0.477315304,0.650679566,0.473090091,0.579903099,TRUE,,,,,,,,,,,,,,,,,,,,,,,,,,,,,,,,,
GOSH_A1,2023-11-09_10h55.21.039,two_step_task_legacy,2022.2.4,Win32,59.54153022,2,learning,0,resources/alien2_norm.png,0.62334515,resources/alien1_norm.png,0.46552265,TRUE,TRUE,3,0.316585619,red,m,0.3462,alien2,TRUE,2,0.046760654,39,1,0.62334515,x,0.6177,0,65,65,65,1,0.46552265,0.62334515,0.46600528,0.57197952,TRUE,,,,,,,,,,,,,,,,,,,,,,,,,,,,,,,,,
GOSH_A1,2023-11-09_10h55.21.039,two_step_task_legacy,2022.2.4,Win32,59.54153022,2,learning,0,resources/alien2_norm.png,0.625851031,resources/alien1_norm.png,0.475612123,TRUE,TRUE,3,0.197494675,red,m,0.2331,alien2,TRUE,3,0.765346048,39,0,0.625851031,x,0.4001,0,66,66,66,1,0.475612123,0.625851031,0.423812817,0.610089415,TRUE,,,,,,,,,,,,,,,,,,,,,,,,,,,,,,,,,
GOSH_A1,2023-11-09_10h55.21.039,two_step_task_legacy,2022.2.4,Win32,59.54153022,2,learning,0,resources/alien2_norm.png,0.591916813,resources/alien1_norm.png,0.488225722,TRUE,TRUE,3,0.384751627,red,m,0.2346,alien2,TRUE,3,0.924360311,39,0,0.591916813,x,0.5827,0,67,67,67,1,0.488225722,0.591916813,0.389156213,0.604504253,TRUE,,,,,,,,,,,,,,,,,,,,,,,,,,,,,,,,,
GOSH_A1,2023-11-09_10h55.21.039,two_step_task_legacy,2022.2.4,Win32,59.54153022,2,learning,1,resources/alien2_norm.png,0.566650103,resources/alien1_norm.png,0.447473516,TRUE,TRUE,3,0.795232686,red,x,1.5614,alien1,TRUE,2,0.276873992,40,1,0.447473516,m,1.3966,0,68,68,68,1,0.447473516,0.566650103,0.426911286,0.600400303,TRUE,,,,,,,,,,,,,,,,,,,,,,,,,,,,,,,,,
GOSH_A1,2023-11-09_10h55.21.039,two_step_task_legacy,2022.2.4,Win32,59.54153022,2,learning,0,resources/alien2_norm.png,0.601017704,resources/alien1_norm.png,0.446833039,TRUE,TRUE,3,0.370468596,red,m,0.3602,alien1,TRUE,3,0.756778103,40,0,0.446833039,m,0.4166,0,69,69,69,1,0.446833039,0.601017704,0.419171163,0.645762646,TRUE,,,,,,,,,,,,,,,,,,,,,,,,,,,,,,,,,
GOSH_A1,2023-11-09_10h55.21.039,two_step_task_legacy,2022.2.4,Win32,59.54153022,2,learning,1,resources/alien2_norm.png,0.577212844,resources/alien1_norm.png,0.46229688,TRUE,TRUE,3,0.951843193,red,x,0.0007,alien1,TRUE,3,0.539889421,40,0,0.46229688,m,0.7951,0,70,70,70,1,0.46229688,0.577212844,0.381881382,0.679798258,TRUE,,,,,,,,,,,,,,,,,,,,,,,,,,,,,,,,,
GOSH_A1,2023-11-09_10h55.21.039,two_step_task_legacy,2022.2.4,Win32,59.54153022,2,learning,0,resources/alien3_norm.png,0.372866063,resources/alien4_norm.png,0.744246282,TRUE,TRUE,2,0.283043169,purple,x,0.3604,alien3,TRUE,3,0.613746211,40,0,0.372866063,x,0.8371,0,71,71,71,1,0.447857256,0.585168326,0.372866063,0.744246282,FALSE,,,,,,,,,,,,,,,,,,,,,,,,,,,,,,,,,
GOSH_A1,2023-11-09_10h55.21.039,two_step_task_legacy,2022.2.4,Win32,59.54153022,2,learning,0,resources/alien3_norm.png,0.365658811,resources/alien4_norm.png,0.738925901,TRUE,TRUE,2,0.350812024,purple,x,0.342,alien4,TRUE,3,0.880844849,40,0,0.738925901,m,0.4123,0,72,72,72,1,0.469156344,0.590253845,0.365658811,0.738925901,FALSE,,,,,,,,,,,,,,,,,,,,,,,,,,,,,,,,,
GOSH_A1,2023-11-09_10h55.21.039,two_step_task_legacy,2022.2.4,Win32,59.54153022,2,learning,1,resources/alien1_norm.png,0.524386296,resources/alien2_norm.png,0.606410566,TRUE,TRUE,3,0.835951618,red,x,0.2855,alien2,TRUE,3,0.75875544,40,0,0.606410566,m,1.2539,0,73,73,73,1,0.524386296,0.606410566,0.368495441,0.745967699,FALSE,,,,,,,,,,,,,,,,,,,,,,,,,,,,,,,,,
GOSH_A1,2023-11-09_10h55.21.039,two_step_task_legacy,2022.2.4,Win32,59.54153022,2,learning,0,resources/alien3_norm.png,0.382592524,resources/alien4_norm.png,0.747056302,TRUE,TRUE,2,0.582341135,purple,x,0.271,alien4,TRUE,2,0.334371687,41,1,0.747056302,m,0.5167,0,74,74,74,1,0.546195851,0.610187899,0.382592524,0.747056302,FALSE,,,,,,,,,,,,,,,,,,,,,,,,,,,,,,,,,
GOSH_A1,2023-11-09_10h55.21.039,two_step_task_legacy,2022.2.4,Win32,59.54153022,2,learning,0,resources/alien3_norm.png,0.365808589,resources/alien4_norm.png,0.727966599,TRUE,TRUE,2,0.465135302,purple,x,0.3757,alien4,TRUE,2,0.419542109,42,1,0.727966599,m,0.5718,0,75,75,75,1,0.516674318,0.630410906,0.365808589,0.727966599,FALSE,,,,,,,,,,,,,,,,,,,,,,,,,,,,,,,,,
GOSH_A1,2023-11-09_10h55.21.039,two_step_task_legacy,2022.2.4,Win32,59.54153022,2,learning,1,resources/alien2_norm.png,0.600336462,resources/alien1_norm.png,0.513333865,TRUE,TRUE,3,0.942958823,red,x,0.2499,alien1,TRUE,3,0.580177672,42,0,0.513333865,m,1.3207,0,76,76,76,1,0.513333865,0.600336462,0.376049182,0.747496672,TRUE,,,,,,,,,,,,,,,,,,,,,,,,,,,,,,,,,
GOSH_A1,2023-11-09_10h55.21.039,two_step_task_legacy,2022.2.4,Win32,59.54153022,2,learning,1,resources/alien2_norm.png,0.616695744,resources/alien1_norm.png,0.533414093,TRUE,TRUE,3,0.796466908,red,x,0.2882,alien1,TRUE,2,0.475205559,43,1,0.533414093,m,1.5456,0,77,77,77,1,0.533414093,0.616695744,0.366792972,0.743468027,TRUE,,,,,,,,,,,,,,,,,,,,,,,,,,,,,,,,,
GOSH_A1,2023-11-09_10h55.21.039,two_step_task_legacy,2022.2.4,Win32,59.54153022,2,learning,0,resources/alien3_norm.png,0.342893528,resources/alien4_norm.png,0.729281693,TRUE,TRUE,2,0.237698741,purple,x,0.4281,alien4,TRUE,2,0.272556424,44,1,0.729281693,m,0.6271,0,78,78,78,1,0.522426186,0.626472856,0.342893528,0.729281693,FALSE,,,,,,,,,,,,,,,,,,,,,,,,,,,,,,,,,
GOSH_A1,2023-11-09_10h55.21.039,two_step_task_legacy,2022.2.4,Win32,59.54153022,2,learning,0,resources/alien4_norm.png,0.732241262,resources/alien3_norm.png,0.328275201,TRUE,TRUE,2,0.67735658,purple,x,0.3508,alien4,TRUE,2,0.458078935,45,1,0.732241262,x,0.6708,0,79,79,79,1,0.537512346,0.612363775,0.328275201,0.732241262,TRUE,,,,,,,,,,,,,,,,,,,,,,,,,,,,,,,,,
GOSH_A1,2023-11-09_10h55.21.039,two_step_task_legacy,2022.2.4,Win32,59.54153022,2,learning,0,resources/alien4_norm.png,0.703847115,resources/alien3_norm.png,0.339910551,TRUE,TRUE,2,0.591662921,purple,x,0.448,alien4,TRUE,2,0.47953434,46,1,0.703847115,x,0.4967,0,80,80,80,1,0.564643748,0.646040762,0.339910551,0.703847115,TRUE,,,,,,,,,,,,,,,,,,,,,,,,,,,,,,,,,
GOSH_A1,2023-11-09_10h55.21.039,two_step_task_legacy,2022.2.4,Win32,59.54153022,2,learning,1,resources/alien2_norm.png,0.667820554,resources/alien1_norm.png,0.574339547,TRUE,TRUE,3,0.844801689,red,x,0.3508,alien2,TRUE,3,0.758837387,46,0,0.667820554,x,1.5595,0,81,81,81,1,0.574339547,0.667820554,0.355880374,0.713459204,TRUE,,,,,,,,,,,,,,,,,,,,,,,,,,,,,,,,,
GOSH_A1,2023-11-09_10h55.21.039,two_step_task_legacy,2022.2.4,Win32,59.54153022,2,learning,0,resources/alien4_norm.png,0.723108132,resources/alien3_norm.png,0.383992384,TRUE,TRUE,2,0.679717863,purple,x,0.5036,alien4,TRUE,2,0.040753651,47,1,0.723108132,x,0.6103,0,82,82,82,1,0.55697673,0.698602971,0.383992384,0.723108132,TRUE,,,,,,,,,,,,,,,,,,,,,,,,,,,,,,,,,
GOSH_A1,2023-11-09_10h55.21.039,two_step_task_legacy,2022.2.4,Win32,59.54153022,2,learning,1,resources/alien4_norm.png,0.74849031,resources/alien3_norm.png,0.388691416,TRUE,TRUE,2,0.754928994,purple,m,0.3377,alien4,TRUE,2,0.487300362,48,1,0.74849031,x,0.8378,0,83,83,83,1,0.520995768,0.688535499,0.388691416,0.74849031,TRUE,,,,,,,,,,,,,,,,,,,,,,,,,,,,,,,,,
GOSH_A1,2023-11-09_10h55.21.039,two_step_task_legacy,2022.2.4,Win32,59.54153022,2,learning,0,resources/alien4_norm.png,0.708470458,resources/alien3_norm.png,0.394471814,TRUE,TRUE,2,0.155410123,purple,x,0.3508,alien4,TRUE,2,0.509690386,49,1,0.708470458,x,0.603,0,84,84,84,1,0.560357955,0.710364652,0.394471814,0.708470458,TRUE,,,,,,,,,,,,,,,,,,,,,,,,,,,,,,,,,
GOSH_A1,2023-11-09_10h55.21.039,two_step_task_legacy,2022.2.4,Win32,59.54153022,2,learning,0,resources/alien3_norm.png,0.366165455,resources/alien4_norm.png,0.701290951,TRUE,TRUE,2,0.445315342,purple,x,0.7964,alien4,TRUE,2,0.353907307,50,1,0.701290951,m,0.7182,0,85,85,85,1,0.642492048,0.694563603,0.366165455,0.701290951,FALSE,,,,,,,,,,,,,,,,,,,,,,,,,,,,,,,,,
GOSH_A1,2023-11-09_10h55.21.039,two_step_task_legacy,2022.2.4,Win32,59.54153022,2,learning,0,resources/alien2_norm.png,0.693119638,resources/alien1_norm.png,0.659827268,TRUE,TRUE,3,0.534614161,red,m,0.4368,alien2,TRUE,2,0.2378534,51,1,0.693119638,x,0.789,0,86,86,86,1,0.659827268,0.693119638,0.339851899,0.68653895,TRUE,,,,,,,,,,,,,,,,,,,,,,,,,,,,,,,,,
GOSH_A1,2023-11-09_10h55.21.039,two_step_task_legacy,2022.2.4,Win32,59.54153022,2,learning,0,resources/alien4_norm.png,0.714890726,resources/alien3_norm.png,0.344034175,TRUE,TRUE,2,0.600226185,purple,x,0.3224,alien4,TRUE,2,0.316054578,52,1,0.714890726,x,0.6474,0,87,87,87,1,0.662335746,0.693358738,0.344034175,0.714890726,TRUE,,,,,,,,,,,,,,,,,,,,,,,,,,,,,,,,,
GOSH_A1,2023-11-09_10h55.21.039,two_step_task_legacy,2022.2.4,Win32,59.54153022,2,learning,1,resources/alien2_norm.png,0.711283868,resources/alien1_norm.png,0.654953403,TRUE,TRUE,3,0.923773187,red,x,0.4773,alien2,TRUE,3,0.909547249,52,0,0.711283868,x,1.3506,0,88,88,88,1,0.654953403,0.711283868,0.317764846,0.686498284,TRUE,,,,,,,,,,,,,,,,,,,,,,,,,,,,,,,,,
GOSH_A1,2023-11-09_10h55.21.039,two_step_task_legacy,2022.2.4,Win32,59.54153022,2,learning,0,resources/alien2_norm.png,0.696475853,resources/alien1_norm.png,0.616516022,TRUE,TRUE,3,0.429318596,red,m,0.299,alien2,TRUE,2,0.57644261,53,1,0.696475853,x,0.5427,0,89,89,89,1,0.616516022,0.696475853,0.351001491,0.679595828,TRUE,,,,,,,,,,,,,,,,,,,,,,,,,,,,,,,,,
GOSH_A1,2023-11-09_10h55.21.039,two_step_task_legacy,2022.2.4,Win32,59.54153022,2,learning,0,resources/alien3_norm.png,0.333950803,resources/alien4_norm.png,0.65457047,TRUE,TRUE,2,0.686111727,purple,x,0.2996,alien4,TRUE,2,0.037872578,54,1,0.65457047,m,0.5873,0,90,90,90,1,0.617393134,0.712975203,0.333950803,0.65457047,FALSE,,,,,,,,,,,,,,,,,,,,,,,,,,,,,,,,,
GOSH_A1,2023-11-09_10h55.21.039,two_step_task_legacy,2022.2.4,Win32,59.54153022,2,learning,1,resources/alien2_norm.png,0.727979256,resources/alien1_norm.png,0.605248488,TRUE,TRUE,3,0.899400026,red,x,0.4442,alien2,TRUE,2,0.418730202,55,1,0.727979256,x,0.9873,0,91,91,91,1,0.605248488,0.727979256,0.333164568,0.68681226,TRUE,,,,,,,,,,,,,,,,,,,,,,,,,,,,,,,,,
GOSH_A1,2023-11-09_10h55.21.039,two_step_task_legacy,2022.2.4,Win32,59.54153022,2,learning,0,resources/alien3_norm.png,0.335050717,resources/alien4_norm.png,0.695375305,TRUE,TRUE,2,0.305573197,purple,x,0.3374,alien4,TRUE,3,0.976631626,55,0,0.695375305,m,0.5835,0,92,92,92,1,0.597920866,0.710049944,0.335050717,0.695375305,FALSE,,,,,,,,,,,,,,,,,,,,,,,,,,,,,,,,,
GOSH_A1,2023-11-09_10h55.21.039,two_step_task_legacy,2022.2.4,Win32,59.54153022,2,learning,0,resources/alien1_norm.png,0.570087701,resources/alien2_norm.png,0.695892733,TRUE,TRUE,3,0.415787204,red,m,0.6016,alien2,TRUE,2,0.644012953,56,1,0.695892733,m,0.694,0,93,93,93,1,0.570087701,0.695892733,0.361676132,0.705704451,FALSE,,,,,,,,,,,,,,,,,,,,,,,,,,,,,,,,,
GOSH_A1,2023-11-09_10h55.21.039,two_step_task_legacy,2022.2.4,Win32,59.54153022,2,learning,0,resources/alien1_norm.png,0.529720036,resources/alien2_norm.png,0.708120691,TRUE,TRUE,3,0.514512217,red,m,0.1956,alien2,TRUE,2,0.382439169,57,1,0.708120691,m,0.74,0,94,94,94,1,0.529720036,0.708120691,0.335318237,0.711789496,FALSE,,,,,,,,,,,,,,,,,,,,,,,,,,,,,,,,,
GOSH_A1,2023-11-09_10h55.21.039,two_step_task_legacy,2022.2.4,Win32,59.54153022,2,learning,1,resources/alien3_norm.png,0.398221116,resources/alien4_norm.png,0.682412233,TRUE,TRUE,2,0.939775952,purple,m,0.2507,alien4,TRUE,2,0.286528028,58,1,0.682412233,m,0.8945,0,95,95,95,1,0.47635657,0.721500672,0.398221116,0.682412233,FALSE,,,,,,,,,,,,,,,,,,,,,,,,,,,,,,,,,
GOSH_A1,2023-11-09_10h55.21.039,two_step_task_legacy,2022.2.4,Win32,59.54153022,2,learning,0,resources/alien1_norm.png,0.466179965,resources/alien2_norm.png,0.715414355,TRUE,TRUE,3,0.587161166,red,m,0.2334,alien2,TRUE,3,0.782006036,58,0,0.715414355,m,0.5224,0,96,96,96,1,0.466179965,0.715414355,0.401364405,0.649304922,FALSE,,,,,,,,,,,,,,,,,,,,,,,,,,,,,,,,,
GOSH_A1,2023-11-09_10h55.21.039,two_step_task_legacy,2022.2.4,Win32,59.54153022,2,learning,0,resources/alien3_norm.png,0.396988401,resources/alien4_norm.png,0.645948713,TRUE,TRUE,2,0.318098791,purple,x,0.5763,alien4,TRUE,2,0.472360239,59,1,0.645948713,m,0.4881,0,97,97,97,1,0.467126539,0.723595882,0.396988401,0.645948713,FALSE,,,,,,,,,,,,,,,,,,,,,,,,,,,,,,,,,
GOSH_A1,2023-11-09_10h55.21.039,two_step_task_legacy,2022.2.4,Win32,59.54153022,2,learning,0,resources/alien4_norm.png,0.668586832,resources/alien3_norm.png,0.433219326,TRUE,TRUE,2,0.615630711,purple,x,0.2731,alien4,TRUE,2,0.179909562,60,1,0.668586832,x,0.761,0,98,98,98,1,0.439790307,0.696269276,0.433219326,0.668586832,TRUE,,,,,,,,,,,,,,,,,,,,,,,,,,,,,,,,,
GOSH_A1,2023-11-09_10h55.21.039,two_step_task_legacy,2022.2.4,Win32,59.54153022,2,learning,1,resources/alien2_norm.png,0.659724849,resources/alien1_norm.png,0.464800643,TRUE,TRUE,3,0.789828596,red,x,0.34,alien2,TRUE,2,0.077352162,61,1,0.659724849,x,0.6754,0,99,99,99,1,0.464800643,0.659724849,0.442086132,0.680060197,TRUE,,,,,,,,,,,,,,,,,,,,,,,,,,,,,,,,,
GOSH_A1,2023-11-09_10h55.21.039,two_step_task_legacy,2022.2.4,Win32,59.54153022,2,learning,1,resources/alien2_norm.png,0.648409952,resources/alien1_norm.png,0.453655036,TRUE,TRUE,3,0.977265851,red,x,0.4537,alien2,TRUE,3,0.71610479,61,0,0.648409952,x,0.6523,0,100,100,100,1,0.453655036,0.648409952,0.432642845,0.688821162,TRUE,,,,,,,,,,,,,,,,,,,,,,,,,,,,,,,,,
GOSH_A1,2023-11-09_10h55.21.039,two_step_task_legacy,2022.2.4,Win32,59.54153022,2,learning,0,resources/alien4_norm.png,0.655063209,resources/alien3_norm.png,0.452743872,TRUE,TRUE,2,0.141397287,purple,x,0.3336,alien4,TRUE,3,0.86223606,61,0,0.655063209,x,0.7762,0,101,101,101,1,0.480154937,0.66099901,0.452743872,0.655063209,TRUE,,,,,,,,,,,,,,,,,,,,,,,,,,,,,,,,,
GOSH_A1,2023-11-09_10h55.21.039,two_step_task_legacy,2022.2.4,Win32,59.54153022,2,learning,1,resources/alien4_norm.png,0.675596743,resources/alien3_norm.png,0.456887081,TRUE,TRUE,2,0.757181671,purple,m,0.25,alien4,TRUE,2,0.31578163,62,1,0.675596743,x,0.7889,0,102,102,102,1,0.435064291,0.686802619,0.456887081,0.675596743,TRUE,,,,,,,,,,,,,,,,,,,,,,,,,,,,,,,,,
GOSH_A1,2023-11-09_10h55.21.039,two_step_task_legacy,2022.2.4,Win32,59.54153022,2,learning,0,resources/alien1_norm.png,0.4274682,resources/alien2_norm.png,0.689975019,TRUE,TRUE,3,0.3466408,red,m,0.2627,alien2,TRUE,2,0.287410171,63,1,0.689975019,m,0.6778,0,103,103,103,1,0.4274682,0.689975019,0.437649181,0.728894923,FALSE,,,,,,,,,,,,,,,,,,,,,,,,,,,,,,,,,
GOSH_A1,2023-11-09_10h55.21.039,two_step_task_legacy,2022.2.4,Win32,59.54153022,2,learning,0,resources/alien3_norm.png,0.448066099,resources/alien4_norm.png,0.744590341,TRUE,TRUE,2,0.131031774,purple,x,0.3893,alien4,TRUE,2,0.144074357,64,1,0.744590341,m,0.5241,0,104,104,104,1,0.394205489,0.723807258,0.448066099,0.744590341,FALSE,,,,,,,,,,,,,,,,,,,,,,,,,,,,,,,,,
GOSH_A1,2023-11-09_10h55.21.039,two_step_task_legacy,2022.2.4,Win32,59.54153022,2,learning,0,resources/alien2_norm.png,0.742093466,resources/alien1_norm.png,0.37371153,TRUE,TRUE,3,0.685132106,red,m,0.2223,alien2,TRUE,2,0.578370586,65,1,0.742093466,x,0.5722,0,105,105,105,1,0.37371153,0.742093466,0.485443502,0.723819794,TRUE,,,,,,,,,,,,,,,,,,,,,,,,,,,,,,,,,
GOSH_A1,2023-11-09_10h55.21.039,two_step_task_legacy,2022.2.4,Win32,59.54153022,2,learning,1,resources/alien1_norm.png,0.349275118,resources/alien2_norm.png,0.734634343,TRUE,TRUE,3,0.797183629,red,x,0.2797,alien2,TRUE,2,0.668405408,66,1,0.734634343,m,0.5881,0,106,106,106,1,0.349275118,0.734634343,0.478530119,0.67031434,FALSE,,,,,,,,,,,,,,,,,,,,,,,,,,,,,,,,,
GOSH_A1,2023-11-09_10h55.21.039,two_step_task_legacy,2022.2.4,Win32,59.54153022,2,learning,0,resources/alien3_norm.png,0.495373807,resources/alien4_norm.png,0.709673268,TRUE,TRUE,2,0.17174629,purple,x,0.3622,alien4,TRUE,2,0.527739052,67,1,0.709673268,m,0.885,0,107,107,107,1,0.35021253,0.718841441,0.495373807,0.709673268,FALSE,,,,,,,,,,,,,,,,,,,,,,,,,,,,,,,,,
GOSH_A1,2023-11-09_10h55.21.039,two_step_task_legacy,2022.2.4,Win32,59.54153022,2,learning,0,resources/alien3_norm.png,0.450735795,resources/alien4_norm.png,0.731898862,TRUE,TRUE,2,0.301864729,purple,x,0.2333,alien4,TRUE,3,0.73576134,67,0,0.731898862,m,0.5751,0,108,108,108,1,0.337348022,0.676963284,0.450735795,0.731898862,FALSE,,,,,,,,,,,,,,,,,,,,,,,,,,,,,,,,,
GOSH_A1,2023-11-09_10h55.21.039,two_step_task_legacy,2022.2.4,Win32,59.54153022,2,learning,1,resources/alien3_norm.png,0.480315234,resources/alien4_norm.png,0.74430369,TRUE,TRUE,2,0.768488074,purple,m,0.2069,alien4,TRUE,2,0.095853254,68,1,0.74430369,m,0.5683,0,109,109,109,1,0.322911322,0.662157072,0.480315234,0.74430369,FALSE,,,,,,,,,,,,,,,,,,,,,,,,,,,,,,,,,
GOSH_A1,2023-11-09_10h55.21.039,two_step_task_legacy,2022.2.4,Win32,59.54153022,2,learning,0,resources/alien2_norm.png,0.729054729,resources/alien1_norm.png,0.323042006,TRUE,TRUE,3,0.553762355,red,m,0.4874,alien2,TRUE,2,0.628906632,69,1,0.729054729,x,0.8787,0,110,110,110,1,0.323042006,0.729054729,0.477745384,0.7400153,TRUE,,,,,,,,,,,,,,,,,,,,,,,,,,,,,,,,,
GOSH_A1,2023-11-09_10h55.21.039,two_step_task_legacy,2022.2.4,Win32,59.54153022,2,learning,0,resources/alien2_norm.png,0.717049686,resources/alien1_norm.png,0.346977723,TRUE,TRUE,3,0.079981711,red,m,0.6353,alien2,TRUE,2,0.240879719,70,1,0.717049686,x,0.5511,0,111,111,111,1,0.346977723,0.717049686,0.502964312,0.740528536,TRUE,,,,,,,,,,,,,,,,,,,,,,,,,,,,,,,,,
GOSH_A1,2023-11-09_10h55.21.039,two_step_task_legacy,2022.2.4,Win32,59.54153022,2,learning,0,resources/alien2_norm.png,0.710505866,resources/alien1_norm.png,0.332641057,TRUE,TRUE,3,0.198596967,red,m,0.6461,alien2,TRUE,3,0.959332106,70,0,0.710505866,x,0.6566,0,112,112,112,1,0.332641057,0.710505866,0.560076847,0.746181252,TRUE,,,,,,,,,,,,,,,,,,,,,,,,,,,,,,,,,
GOSH_A1,2023-11-09_10h55.21.039,two_step_task_legacy,2022.2.4,Win32,59.54153022,2,learning,1,resources/alien1_norm.png,0.329582244,resources/alien2_norm.png,0.713556046,TRUE,TRUE,3,0.839673051,red,x,0.316,alien2,TRUE,3,0.775355923,70,0,0.713556046,m,0.8002,0,113,113,113,1,0.329582244,0.713556046,0.551953466,0.737084193,FALSE,,,,,,,,,,,,,,,,,,,,,,,,,,,,,,,,,
GOSH_A1,2023-11-09_10h55.21.039,two_step_task_legacy,2022.2.4,Win32,59.54153022,2,learning,0,resources/alien2_norm.png,0.698255739,resources/alien1_norm.png,0.300863762,TRUE,TRUE,3,0.249251984,red,m,0.4,alien1,TRUE,3,0.546319657,70,0,0.300863762,m,0.4818,0,114,114,114,1,0.300863762,0.698255739,0.54581186,0.722210778,TRUE,,,,,,,,,,,,,,,,,,,,,,,,,,,,,,,,,
GOSH_A1,2023-11-09_10h55.21.039,two_step_task_legacy,2022.2.4,Win32,59.54153022,2,learning,0,resources/alien3_norm.png,0.527422928,resources/alien4_norm.png,0.744852234,TRUE,TRUE,2,0.154370496,purple,x,0.3272,alien3,TRUE,3,0.839438496,70,0,0.527422928,x,1.4769,0,115,115,115,1,0.335585272,0.683609207,0.527422928,0.744852234,FALSE,,,,,,,,,,,,,,,,,,,,,,,,,,,,,,,,,
GOSH_A1,2023-11-09_10h55.21.039,two_step_task_legacy,2022.2.4,Win32,59.54153022,2,learning,1,resources/alien2_norm.png,0.690248802,resources/alien1_norm.png,0.358671417,TRUE,TRUE,3,0.903189073,red,x,0.2654,alien1,TRUE,2,0.251425915,71,1,0.358671417,m,0.8377,0,116,116,116,1,0.358671417,0.690248802,0.529277885,0.710357088,TRUE,,,,,,,,,,,,,,,,,,,,,,,,,,,,,,,,,
GOSH_A1,2023-11-09_10h55.21.039,two_step_task_legacy,2022.2.4,Win32,59.54153022,2,learning,0,resources/alien2_norm.png,0.718538292,resources/alien1_norm.png,0.395365799,TRUE,TRUE,3,0.641188742,red,m,0.2165,alien1,TRUE,3,0.442761967,71,0,0.395365799,m,0.3281,0,117,117,117,1,0.395365799,0.718538292,0.547665382,0.724019431,TRUE,,,,,,,,,,,,,,,,,,,,,,,,,,,,,,,,,
GOSH_A1,2023-11-09_10h55.21.039,two_step_task_legacy,2022.2.4,Win32,59.54153022,2,learning,0,resources/alien4_norm.png,0.74235091,resources/alien3_norm.png,0.542102089,TRUE,TRUE,2,0.057142718,purple,x,0.2213,alien3,TRUE,2,0.055794292,72,1,0.542102089,m,0.5366,0,118,118,118,1,0.384016558,0.721594268,0.542102089,0.74235091,TRUE,,,,,,,,,,,,,,,,,,,,,,,,,,,,,,,,,
GOSH_A1,2023-11-09_10h55.21.039,two_step_task_legacy,2022.2.4,Win32,59.54153022,2,learning,0,resources/alien3_norm.png,0.527099802,resources/alien4_norm.png,0.742572012,TRUE,TRUE,2,0.674989304,purple,x,0.1906,alien3,TRUE,3,0.923534907,72,0,0.527099802,x,0.4888,0,119,119,119,1,0.379194304,0.706850908,0.527099802,0.742572012,FALSE,,,,,,,,,,,,,,,,,,,,,,,,,,,,,,,,,
GOSH_A1,2023-11-09_10h55.21.039,two_step_task_legacy,2022.2.4,Win32,59.54153022,2,learning,1,resources/alien4_norm.png,0.747849489,resources/alien3_norm.png,0.497453415,TRUE,TRUE,2,0.856151415,purple,m,0.5198,alien3,TRUE,2,0.092166081,73,1,0.497453415,m,0.8899,0,120,120,120,1,0.311589413,0.742746316,0.497453415,0.747849489,TRUE,,,,,,,,,,,,,,,,,,,,,,,,,,,,,,,,,
GOSH_A1,2023-11-09_10h55.21.039,two_step_task_legacy,2022.2.4,Win32,59.54153022,2,learning,0,resources/alien2_norm.png,0.734331013,resources/alien1_norm.png,0.288613638,TRUE,TRUE,3,0.161475527,red,m,0.4212,alien1,TRUE,3,0.749087275,73,0,0.288613638,m,0.3694,0,121,121,121,1,0.288613638,0.734331013,0.493636211,0.732948846,TRUE,,,,,,,,,,,,,,,,,,,,,,,,,,,,,,,,,
GOSH_A1,2023-11-09_10h55.21.039,two_step_task_legacy,2022.2.4,Win32,59.54153022,2,learning,1,resources/alien1_norm.png,0.327163232,resources/alien2_norm.png,0.735030185,TRUE,TRUE,3,0.843102724,red,x,0.4174,alien1,TRUE,2,0.185941729,74,1,0.327163232,x,0.9767,0,122,122,122,1,0.327163232,0.735030185,0.458718952,0.712748711,FALSE,,,,,,,,,,,,,,,,,,,,,,,,,,,,,,,,,
GOSH_A1,2023-11-09_10h55.21.039,two_step_task_legacy,2022.2.4,Win32,59.54153022,2,learning,1,resources/alien2_norm.png,0.735188606,resources/alien1_norm.png,0.325553926,TRUE,TRUE,3,0.877854716,red,x,0.2476,alien1,TRUE,2,0.271248286,75,1,0.325553926,m,0.6157,0,123,123,123,1,0.325553926,0.735188606,0.414123906,0.707920788,TRUE,,,,,,,,,,,,,,,,,,,,,,,,,,,,,,,,,
GOSH_A1,2023-11-09_10h55.21.039,two_step_task_legacy,2022.2.4,Win32,59.54153022,2,learning,0,resources/alien4_norm.png,0.719523144,resources/alien3_norm.png,0.358787311,TRUE,TRUE,2,0.046248398,purple,x,0.2504,alien3,TRUE,2,0.348437201,76,1,0.358787311,m,0.6766,0,124,124,124,1,0.332284924,0.728011457,0.358787311,0.719523144,TRUE,,,,,,,,,,,,,,,,,,,,,,,,,,,,,,,,,
GOSH_A1,2023-11-09_10h55.21.039,two_step_task_legacy,2022.2.4,Win32,59.54153022,2,learning,0,resources/alien2_norm.png,0.695840729,resources/alien1_norm.png,0.326093405,TRUE,TRUE,3,0.574669213,red,m,0.2149,alien1,TRUE,3,0.390458425,76,0,0.326093405,m,0.6991,0,125,125,125,1,0.326093405,0.695840729,0.400002364,0.736399527,TRUE,,,,,,,,,,,,,,,,,,,,,,,,,,,,,,,,,
GOSH_A1,2023-11-09_10h55.21.039,two_step_task_legacy,2022.2.4,Win32,59.54153022,2,learning,0,resources/alien4_norm.png,0.734764761,resources/alien3_norm.png,0.427141787,TRUE,TRUE,2,0.305432528,purple,x,0.6177,alien3,TRUE,3,0.621179426,76,0,0.427141787,m,0.5502,0,126,126,126,1,0.323930204,0.660568372,0.427141787,0.734764761,TRUE,,,,,,,,,,,,,,,,,,,,,,,,,,,,,,,,,
GOSH_A1,2023-11-09_10h55.21.039,two_step_task_legacy,2022.2.4,Win32,59.54153022,2,learning,1,resources/alien2_norm.png,0.647692248,resources/alien1_norm.png,0.340229983,TRUE,TRUE,3,0.766750942,red,x,0.2497,alien1,TRUE,3,0.3800596,76,0,0.340229983,m,0.5222,0,127,127,127,1,0.340229983,0.647692248,0.427069701,0.72143708,TRUE,,,,,,,,,,,,,,,,,,,,,,,,,,,,,,,,,
GOSH_A1,2023-11-09_10h55.21.039,two_step_task_legacy,2022.2.4,Win32,59.54153022,2,learning,0,resources/alien2_norm.png,0.630816083,resources/alien1_norm.png,0.338813549,TRUE,TRUE,3,0.478915794,red,m,0.2371,alien1,TRUE,2,0.071453814,77,1,0.338813549,m,0.5177,0,128,128,128,1,0.338813549,0.630816083,0.40499619,0.744385778,TRUE,,,,,,,,,,,,,,,,,,,,,,,,,,,,,,,,,
GOSH_A1,2023-11-09_10h55.21.039,two_step_task_legacy,2022.2.4,Win32,59.54153022,2,learning,0,resources/alien2_norm.png,0.661989018,resources/alien1_norm.png,0.336434737,TRUE,TRUE,3,0.652759172,red,m,0.2115,alien1,TRUE,2,0.119310221,78,1,0.336434737,m,0.41,0,129,129,129,1,0.336434737,0.661989018,0.444389232,0.724357321,TRUE,,,,,,,,,,,,,,,,,,,,,,,,,,,,,,,,,
GOSH_A1,2023-11-09_10h55.21.039,two_step_task_legacy,2022.2.4,Win32,59.54153022,2,learning,0,resources/alien1_norm.png,0.290559274,resources/alien2_norm.png,0.672971781,TRUE,TRUE,3,0.618527431,red,m,0.2112,alien1,TRUE,2,0.097274374,79,1,0.290559274,x,0.6459,0,130,130,130,1,0.290559274,0.672971781,0.428715926,0.730204744,FALSE,,,,,,,,,,,,,,,,,,,,,,,,,,,,,,,,,
GOSH_A1,2023-11-09_10h55.21.039,two_step_task_legacy,2022.2.4,Win32,59.54153022,2,learning,0,resources/alien2_norm.png,0.620277314,resources/alien1_norm.png,0.316122369,TRUE,TRUE,3,0.246950236,red,m,0.2228,alien1,TRUE,2,0.004910964,80,1,0.316122369,m,0.5288,0,131,131,131,1,0.316122369,0.620277314,0.426712563,0.736924708,TRUE,,,,,,,,,,,,,,,,,,,,,,,,,,,,,,,,,
GOSH_A1,2023-11-09_10h55.21.039,two_step_task_legacy,2022.2.4,Win32,59.54153022,2,learning,1,resources/alien3_norm.png,0.428806971,resources/alien4_norm.png,0.745455893,TRUE,TRUE,2,0.704559629,purple,m,0.2365,alien3,TRUE,2,0.066952305,81,1,0.428806971,x,0.6223,0,132,132,132,1,0.351537647,0.634556363,0.428806971,0.745455893,FALSE,,,,,,,,,,,,,,,,,,,,,,,,,,,,,,,,,
GOSH_A1,2023-11-09_10h55.21.039,two_step_task_legacy,2022.2.4,Win32,59.54153022,2,learning,0,resources/alien4_norm.png,0.746235282,resources/alien3_norm.png,0.393697106,TRUE,TRUE,2,0.274287449,purple,x,0.7276,alien3,TRUE,3,0.504165749,81,0,0.393697106,m,0.6728,0,133,133,133,1,0.36337083,0.630455363,0.393697106,0.746235282,TRUE,,,,,,,,,,,,,,,,,,,,,,,,,,,,,,,,,
GOSH_A1,2023-11-09_10h55.21.039,two_step_task_legacy,2022.2.4,Win32,59.54153022,2,learning,1,resources/alien4_norm.png,0.744542488,resources/alien3_norm.png,0.40193756,TRUE,TRUE,2,0.795997268,purple,m,0.2041,alien3,TRUE,3,0.70010483,81,0,0.40193756,m,0.7067,0,134,134,134,1,0.391533394,0.629464294,0.40193756,0.744542488,TRUE,,,,,,,,,,,,,,,,,,,,,,,,,,,,,,,,,
GOSH_A1,2023-11-09_10h55.21.039,two_step_task_legacy,2022.2.4,Win32,59.54153022,2,learning,1,resources/alien3_norm.png,0.393998803,resources/alien4_norm.png,0.715176093,TRUE,TRUE,2,0.796674693,purple,m,0.2291,alien3,TRUE,3,0.404619112,81,0,0.393998803,x,0.6159,0,135,135,135,1,0.369719776,0.638245617,0.393998803,0.715176093,FALSE,,,,,,,,,,,,,,,,,,,,,,,,,,,,,,,,,
GOSH_A1,2023-11-09_10h55.21.039,two_step_task_legacy,2022.2.4,Win32,59.54153022,2,learning,1,resources/alien2_norm.png,0.649511756,resources/alien1_norm.png,0.366198559,TRUE,TRUE,3,0.71197201,red,x,0.121,alien1,TRUE,2,0.182838916,82,1,0.366198559,m,0.4254,0,136,136,136,1,0.366198559,0.649511756,0.413754202,0.707095008,TRUE,,,,,,,,,,,,,,,,,,,,,,,,,,,,,,,,,
GOSH_A1,2023-11-09_10h55.21.039,two_step_task_legacy,2022.2.4,Win32,59.54153022,2,learning,1,resources/alien2_norm.png,0.652072629,resources/alien1_norm.png,0.382888211,TRUE,TRUE,3,0.967660002,red,x,0.2679,alien1,TRUE,3,0.888037351,82,0,0.382888211,m,0.3992,0,137,137,137,1,0.382888211,0.652072629,0.397718097,0.712484856,TRUE,,,,,,,,,,,,,,,,,,,,,,,,,,,,,,,,,
GOSH_A1,2023-11-09_10h55.21.039,two_step_task_legacy,2022.2.4,Win32,59.54153022,2,learning,0,resources/alien4_norm.png,0.693717942,resources/alien3_norm.png,0.403132479,TRUE,TRUE,2,0.204109326,purple,x,0.2708,alien3,TRUE,3,0.968923352,82,0,0.403132479,m,0.6153,0,138,138,138,1,0.343581066,0.668249043,0.403132479,0.693717942,TRUE,,,,,,,,,,,,,,,,,,,,,,,,,,,,,,,,,
GOSH_A1,2023-11-09_10h55.21.039,two_step_task_legacy,2022.2.4,Win32,59.54153022,2,learning,0,resources/alien4_norm.png,0.688514127,resources/alien3_norm.png,0.435461559,TRUE,TRUE,2,0.219047541,purple,x,0.2498,alien4,TRUE,2,0.443803393,83,1,0.688514127,x,0.7606,0,139,139,139,1,0.363838317,0.672524194,0.435461559,0.688514127,TRUE,,,,,,,,,,,,,,,,,,,,,,,,,,,,,,,,,
GOSH_A1,2023-11-09_10h55.21.039,two_step_task_legacy,2022.2.4,Win32,59.54153022,2,learning,0,resources/alien4_norm.png,0.693632034,resources/alien3_norm.png,0.439845091,TRUE,TRUE,2,0.459902315,purple,x,0.5042,alien4,TRUE,2,0.642227367,84,1,0.693632034,x,0.5667,0,140,140,140,1,0.379344852,0.710972025,0.439845091,0.693632034,TRUE,,,,,,,,,,,,,,,,,,,,,,,,,,,,,,,,,
GOSH_A1,2023-11-09_10h55.21.039,two_step_task_legacy,2022.2.4,Win32,59.54153022,2,learning,0,resources/alien4_norm.png,0.69214813,resources/alien3_norm.png,0.431317014,TRUE,TRUE,2,0.307896092,purple,x,0.2572,alien4,TRUE,2,0.370758141,85,1,0.69214813,x,0.3659,0,141,141,141,1,0.373374152,0.729873496,0.431317014,0.69214813,TRUE,,,,,,,,,,,,,,,,,,,,,,,,,,,,,,,,,
GOSH_A1,2023-11-09_10h55.21.039,two_step_task_legacy,2022.2.4,Win32,59.54153022,2,learning,1,resources/alien1_norm.png,0.390669051,resources/alien2_norm.png,0.716383606,TRUE,TRUE,3,0.752852299,red,x,0.2369,alien2,TRUE,2,0.27221833,86,1,0.716383606,m,0.7662,0,142,142,142,1,0.390669051,0.716383606,0.452030427,0.674123188,FALSE,,,,,,,,,,,,,,,,,,,,,,,,,,,,,,,,,
GOSH_A1,2023-11-09_10h55.21.039,two_step_task_legacy,2022.2.4,Win32,59.54153022,2,learning,1,resources/alien1_norm.png,0.339477736,resources/alien2_norm.png,0.744969912,TRUE,TRUE,3,0.79869536,red,x,0.2529,alien2,TRUE,2,0.206093161,87,1,0.744969912,m,0.5997,0,143,143,143,1,0.339477736,0.744969912,0.442360919,0.639333921,FALSE,,,,,,,,,,,,,,,,,,,,,,,,,,,,,,,,,
GOSH_A1,2023-11-09_10h55.21.039,two_step_task_legacy,2022.2.4,Win32,59.54153022,2,learning,1,resources/alien2_norm.png,0.710844956,resources/alien1_norm.png,0.317803938,TRUE,TRUE,3,0.859773891,red,x,0.2459,alien2,TRUE,2,0.639271652,88,1,0.710844956,x,0.6193,0,144,144,144,1,0.317803938,0.710844956,0.42051828,0.612593584,TRUE,,,,,,,,,,,,,,,,,,,,,,,,,,,,,,,,,
GOSH_A1,2023-11-09_10h55.21.039,two_step_task_legacy,2022.2.4,Win32,59.54153022,2,learning,0,resources/alien4_norm.png,0.635215037,resources/alien3_norm.png,0.446044137,TRUE,TRUE,2,0.226688179,purple,x,0.2613,alien4,TRUE,2,0.548518787,89,1,0.635215037,x,0.7509,0,145,145,145,1,0.311104109,0.746481624,0.446044137,0.635215037,TRUE,,,,,,,,,,,,,,,,,,,,,,,,,,,,,,,,,
GOSH_A1,2023-11-09_10h55.21.039,two_step_task_legacy,2022.2.4,Win32,59.54153022,2,learning,0,resources/alien3_norm.png,0.457400821,resources/alien4_norm.png,0.626838599,TRUE,TRUE,2,0.163714126,purple,x,0.2545,alien4,TRUE,2,0.220121576,90,1,0.626838599,m,0.5058,0,146,146,146,1,0.322435636,0.748817246,0.457400821,0.626838599,FALSE,,,,,,,,,,,,,,,,,,,,,,,,,,,,,,,,,
GOSH_A1,2023-11-09_10h55.21.039,two_step_task_legacy,2022.2.4,Win32,59.54153022,2,learning,0,resources/alien4_norm.png,0.604796627,resources/alien3_norm.png,0.444423405,TRUE,TRUE,2,0.145742322,purple,x,0.467,alien4,TRUE,2,0.204304834,91,1,0.604796627,x,0.6119,0,147,147,147,1,0.311003061,0.708845948,0.444423405,0.604796627,TRUE,,,,,,,,,,,,,,,,,,,,,,,,,,,,,,,,,
GOSH_A1,2023-11-09_10h55.21.039,two_step_task_legacy,2022.2.4,Win32,59.54153022,2,learning,0,resources/alien4_norm.png,0.575008043,resources/alien3_norm.png,0.466381219,TRUE,TRUE,2,0.095042948,purple,x,0.2676,alien4,TRUE,2,0.02242877,92,1,0.575008043,x,0.5773,0,148,148,148,1,0.323921279,0.709213445,0.466381219,0.575008043,TRUE,,,,,,,,,,,,,,,,,,,,,,,,,,,,,,,,,
GOSH_A1,2023-11-09_10h55.21.039,two_step_task_legacy,2022.2.4,Win32,59.54153022,2,learning,1,resources/alien2_norm.png,0.703134316,resources/alien1_norm.png,0.320184667,TRUE,TRUE,3,0.846796247,red,x,0.2615,alien2,TRUE,2,0.598485978,93,1,0.703134316,x,0.5325,0,149,149,149,1,0.320184667,0.703134316,0.42955844,0.581290383,TRUE,,,,,,,,,,,,,,,,,,,,,,,,,,,,,,,,,
GOSH_A1,2023-11-09_10h55.21.039,two_step_task_legacy,2022.2.4,Win32,59.54153022,2,learning,0,resources/alien3_norm.png,0.4,resources/alien4_norm.png,0.6,TRUE,TRUE,2,0.351797355,purple,x,0.2475,alien4,TRUE,3,0.659683874,93,0,0.6,m,0.7542,0,150,150,150,1,0.3,0.7,0.4,0.6,FALSE,,,,,,,,,,,,,,,,,,,,,,,,,,,,,,,,,
GOSH_A1,2023-11-09_10h55.21.039,two_step_task_legacy,2022.2.4,Win32,59.54153022,2,learning,0,resources/alien4_norm.png,0.6,resources/alien3_norm.png,0.4,TRUE,TRUE,2,0.165339571,purple,x,0.4677,alien4,TRUE,3,0.8126264,93,0,0.6,x,0.4557,0,151,151,151,1,0.3,0.7,0.4,0.6,TRUE,,,,,,,,,,,,,,,,,,,,,,,,,,,,,,,,,
GOSH_A1,2023-11-09_10h55.21.039,two_step_task_legacy,2022.2.4,Win32,59.54153022,2,learning,0,resources/alien2_norm.png,0.7,resources/alien1_norm.png,0.3,TRUE,TRUE,3,0.503987966,red,m,0.221,alien2,TRUE,2,0.077640565,94,1,0.7,x,0.3884,0,152,152,152,1,0.3,0.7,0.4,0.6,TRUE,,,,,,,,,,,,,,,,,,,,,,,,,,,,,,,,,
GOSH_A1,2023-11-09_10h55.21.039,two_step_task_legacy,2022.2.4,Win32,59.54153022,2,learning,1,resources/alien4_norm.png,0.6,resources/alien3_norm.png,0.4,TRUE,TRUE,2,0.981052329,purple,m,0.2103,alien4,TRUE,3,0.629357849,94,0,0.6,x,0.8668,0,153,153,153,1,0.3,0.7,0.4,0.6,TRUE,,,,,,,,,,,,,,,,,,,,,,,,,,,,,,,,,
GOSH_A1,2023-11-09_10h55.21.039,two_step_task_legacy,2022.2.4,Win32,59.54153022,2,learning,0,resources/alien2_norm.png,0.7,resources/alien1_norm.png,0.3,TRUE,TRUE,3,0.472516672,red,m,0.1082,alien2,TRUE,2,0.029601678,95,1,0.7,x,0.6392,0,154,154,154,1,0.3,0.7,0.4,0.6,TRUE,,,,,,,,,,,,,,,,,,,,,,,,,,,,,,,,,
GOSH_A1,2023-11-09_10h55.21.039,two_step_task_legacy,2022.2.4,Win32,59.54153022,2,learning,1,resources/alien3_norm.png,0.4,resources/alien4_norm.png,0.6,TRUE,TRUE,2,0.848628479,purple,m,0.3709,alien3,TRUE,2,0.136475561,96,1,0.4,x,1.0347,0,155,155,155,1,0.3,0.7,0.4,0.6,FALSE,,,,,,,,,,,,,,,,,,,,,,,,,,,,,,,,,
GOSH_A1,2023-11-09_10h55.21.039,two_step_task_legacy,2022.2.4,Win32,59.54153022,2,learning,0,resources/alien1_norm.png,0.3,resources/alien2_norm.png,0.7,TRUE,TRUE,3,0.455361791,red,m,0.1998,alien2,TRUE,2,0.608958221,97,1,0.7,m,0.6276,0,156,156,156,1,0.3,0.7,0.4,0.6,FALSE,,,,,,,,,,,,,,,,,,,,,,,,,,,,,,,,,
GOSH_A1,2023-11-09_10h55.21.039,two_step_task_legacy,2022.2.4,Win32,59.54153022,2,learning,0,resources/alien2_norm.png,0.7,resources/alien1_norm.png,0.3,TRUE,TRUE,3,0.616097623,red,m,0.1688,alien2,TRUE,2,0.225176841,98,1,0.7,x,1.8187,0,157,157,157,1,0.3,0.7,0.4,0.6,TRUE,,,,,,,,,,,,,,,,,,,,,,,,,,,,,,,,,
GOSH_A1,2023-11-09_10h55.21.039,two_step_task_legacy,2022.2.4,Win32,59.54153022,2,learning,0,resources/alien2_norm.png,0.7,resources/alien1_norm.png,0.3,TRUE,TRUE,3,0.295820467,red,m,0.2648,alien2,TRUE,2,0.011997514,99,1,0.7,x,0.5667,0,158,158,158,1,0.3,0.7,0.4,0.6,TRUE,,,,,,,,,,,,,,,,,,,,,,,,,,,,,,,,,
GOSH_A1,2023-11-09_10h55.21.039,two_step_task_legacy,2022.2.4,Win32,59.54153022,2,learning,0,resources/alien2_norm.png,0.7,resources/alien1_norm.png,0.3,TRUE,TRUE,3,0.021193302,red,m,0.2174,alien2,TRUE,2,0.366878004,100,1,0.7,x,0.5661,0,159,159,159,1,0.3,0.7,0.4,0.6,TRUE,,,,,,,,,,,,,,,,,,,,,,,,,,,,,,,,,
GOSH_A1,2023-11-09_10h55.21.039,two_step_task_legacy,2022.2.4,Win32,59.54153022,2,learning,0,resources/alien2_norm.png,0.7,resources/alien1_norm.png,0.3,TRUE,TRUE,3,0.102581283,red,m,0.2021,alien2,TRUE,2,0.470312148,101,1,0.7,x,0.541,0,160,160,160,1,0.3,0.7,0.4,0.6,TRUE,,,,,,,,,,,,,,,,,,,,,,,,,,,,,,,,,
GOSH_A1,2023-11-09_10h55.21.039,two_step_task_legacy,2022.2.4,Win32,59.54153022,2,learning,1,resources/alien4_norm.png,0.6,resources/alien3_norm.png,0.4,TRUE,TRUE,2,0.787141284,purple,m,0.3999,alien3,TRUE,2,0.139627763,102,1,0.4,m,0.895,0,161,161,161,1,0.3,0.7,0.4,0.6,TRUE,,,,,,,,,,,,,,,,,,,,,,,,,,,,,,,,,
GOSH_A1,2023-11-09_10h55.21.039,two_step_task_legacy,2022.2.4,Win32,59.54153022,2,learning,1,resources/alien4_norm.png,0.6,resources/alien3_norm.png,0.4,TRUE,TRUE,2,0.982429632,purple,m,0.3737,alien3,TRUE,3,0.425882185,102,0,0.4,m,0.6934,0,162,162,162,1,0.3,0.7,0.4,0.6,TRUE,,,,,,,,,,,,,,,,,,,,,,,,,,,,,,,,,
GOSH_A1,2023-11-09_10h55.21.039,two_step_task_legacy,2022.2.4,Win32,59.54153022,2,learning,1,resources/alien1_norm.png,0.3,resources/alien2_norm.png,0.7,TRUE,TRUE,3,0.882744845,red,x,0.1285,alien2,TRUE,2,0.441133259,103,1,0.7,m,0.5874,0,163,163,163,1,0.3,0.7,0.4,0.6,FALSE,,,,,,,,,,,,,,,,,,,,,,,,,,,,,,,,,
GOSH_A1,2023-11-09_10h55.21.039,two_step_task_legacy,2022.2.4,Win32,59.54153022,2,learning,0,resources/alien4_norm.png,0.6,resources/alien3_norm.png,0.4,TRUE,TRUE,2,0.549052491,purple,x,0.284,alien3,TRUE,3,0.610295579,103,0,0.4,m,1.1833,0,164,164,164,1,0.3,0.7,0.4,0.6,TRUE,,,,,,,,,,,,,,,,,,,,,,,,,,,,,,,,,
GOSH_A1,2023-11-09_10h55.21.039,two_step_task_legacy,2022.2.4,Win32,59.54153022,2,learning,1,resources/alien3_norm.png,0.4,resources/alien4_norm.png,0.6,TRUE,TRUE,2,0.957957375,purple,m,0.1228,alien4,TRUE,2,0.319289592,104,1,0.6,m,1.3381,0,165,165,165,1,0.3,0.7,0.4,0.6,FALSE,,,,,,,,,,,,,,,,,,,,,,,,,,,,,,,,,
GOSH_A1,2023-11-09_10h55.21.039,two_step_task_legacy,2022.2.4,Win32,59.54153022,2,learning,0,resources/alien1_norm.png,0.3,resources/alien2_norm.png,0.7,TRUE,TRUE,3,0.68836678,red,m,0.2057,alien2,TRUE,2,0.610195218,105,1,0.7,m,0.3917,0,166,166,166,1,0.3,0.7,0.4,0.6,FALSE,,,,,,,,,,,,,,,,,,,,,,,,,,,,,,,,,
GOSH_A1,2023-11-09_10h55.21.039,two_step_task_legacy,2022.2.4,Win32,59.54153022,2,learning,1,resources/alien4_norm.png,0.6,resources/alien3_norm.png,0.4,TRUE,TRUE,2,0.926255197,purple,m,0.4832,alien3,TRUE,2,0.076850699,106,1,0.4,m,0.8837,0,167,167,167,1,0.3,0.7,0.4,0.6,TRUE,,,,,,,,,,,,,,,,,,,,,,,,,,,,,,,,,
GOSH_A1,2023-11-09_10h55.21.039,two_step_task_legacy,2022.2.4,Win32,59.54153022,2,learning,0,resources/alien4_norm.png,0.6,resources/alien3_norm.png,0.4,TRUE,TRUE,2,0.275945272,purple,x,0.248,alien3,TRUE,3,0.49959292,106,0,0.4,m,0.3665,0,168,168,168,1,0.3,0.7,0.4,0.6,TRUE,,,,,,,,,,,,,,,,,,,,,,,,,,,,,,,,,
GOSH_A1,2023-11-09_10h55.21.039,two_step_task_legacy,2022.2.4,Win32,59.54153022,2,learning,0,resources/alien2_norm.png,0.7,resources/alien1_norm.png,0.3,TRUE,TRUE,3,0.554936614,red,m,0.2506,alien2,TRUE,3,0.744568981,106,0,0.7,x,0.659,0,169,169,169,1,0.3,0.7,0.4,0.6,TRUE,,,,,,,,,,,,,,,,,,,,,,,,,,,,,,,,,
GOSH_A1,2023-11-09_10h55.21.039,two_step_task_legacy,2022.2.4,Win32,59.54153022,2,learning,0,resources/alien2_norm.png,0.7,resources/alien1_norm.png,0.3,TRUE,TRUE,3,0.182454242,red,m,0.3113,alien1,TRUE,2,0.189917401,107,1,0.3,m,0.4529,0,170,170,170,1,0.3,0.7,0.4,0.6,TRUE,,,,,,,,,,,,,,,,,,,,,,,,,,,,,,,,,
GOSH_A1,2023-11-09_10h55.21.039,two_step_task_legacy,2022.2.4,Win32,59.54153022,2,learning,0,resources/alien1_norm.png,0.3,resources/alien2_norm.png,0.7,TRUE,TRUE,3,0.25277011,red,m,0.1831,alien1,TRUE,3,0.529908176,107,0,0.3,x,0.8599,0,171,171,171,1,0.3,0.7,0.4,0.6,FALSE,,,,,,,,,,,,,,,,,,,,,,,,,,,,,,,,,
GOSH_A1,2023-11-09_10h55.21.039,two_step_task_legacy,2022.2.4,Win32,59.54153022,2,learning,0,resources/alien1_norm.png,0.3,resources/alien2_norm.png,0.7,TRUE,TRUE,3,0.517779501,red,m,0.1811,alien1,TRUE,2,0.014494419,108,1,0.3,x,0.7244,0,172,172,172,1,0.3,0.7,0.4,0.6,FALSE,,,,,,,,,,,,,,,,,,,,,,,,,,,,,,,,,
GOSH_A1,2023-11-09_10h55.21.039,two_step_task_legacy,2022.2.4,Win32,59.54153022,2,learning,0,resources/alien4_norm.png,0.6,resources/alien3_norm.png,0.4,TRUE,TRUE,2,0.555067186,purple,x,0.359,alien4,TRUE,3,0.9947285,108,0,0.6,x,0.5817,0,173,173,173,1,0.3,0.7,0.4,0.6,TRUE,,,,,,,,,,,,,,,,,,,,,,,,,,,,,,,,,
GOSH_A1,2023-11-09_10h55.21.039,two_step_task_legacy,2022.2.4,Win32,59.54153022,2,learning,0,resources/alien3_norm.png,0.4,resources/alien4_norm.png,0.6,TRUE,TRUE,2,0.292932061,purple,x,0.5299,alien3,TRUE,3,0.642346509,108,0,0.4,x,0.5399,0,174,174,174,1,0.3,0.7,0.4,0.6,FALSE,,,,,,,,,,,,,,,,,,,,,,,,,,,,,,,,,
GOSH_A1,2023-11-09_10h55.21.039,two_step_task_legacy,2022.2.4,Win32,59.54153022,2,learning,0,resources/alien2_norm.png,0.7,resources/alien1_norm.png,0.3,TRUE,TRUE,3,0.053321587,red,m,0.5235,alien1,TRUE,3,0.406259627,108,0,0.3,m,0.6001,0,175,175,175,1,0.3,0.7,0.4,0.6,TRUE,,,,,,,,,,,,,,,,,,,,,,,,,,,,,,,,,
GOSH_A1,2023-11-09_10h55.21.039,two_step_task_legacy,2022.2.4,Win32,59.54153022,2,learning,0,resources/alien1_norm.png,0.3,resources/alien2_norm.png,0.7,TRUE,TRUE,3,0.571518298,red,m,0.1866,alien2,TRUE,2,0.016656159,109,1,0.7,m,0.2874,0,176,176,176,1,0.3,0.7,0.4,0.6,FALSE,,,,,,,,,,,,,,,,,,,,,,,,,,,,,,,,,
GOSH_A1,2023-11-09_10h55.21.039,two_step_task_legacy,2022.2.4,Win32,59.54153022,2,learning,0,resources/alien2_norm.png,0.7,resources/alien1_norm.png,0.3,TRUE,TRUE,3,0.301045281,red,m,0.4355,alien2,TRUE,3,0.943919506,109,0,0.7,x,0.6009,0,177,177,177,1,0.3,0.7,0.4,0.6,TRUE,,,,,,,,,,,,,,,,,,,,,,,,,,,,,,,,,
GOSH_A1,2023-11-09_10h55.21.039,two_step_task_legacy,2022.2.4,Win32,59.54153022,2,learning,0,resources/alien1_norm.png,0.3,resources/alien2_norm.png,0.7,TRUE,TRUE,3,0.027737109,red,m,0.144,alien1,TRUE,2,0.218784905,110,1,0.3,x,1.0395,0,178,178,178,1,0.3,0.7,0.4,0.6,FALSE,,,,,,,,,,,,,,,,,,,,,,,,,,,,,,,,,
GOSH_A1,2023-11-09_10h55.21.039,two_step_task_legacy,2022.2.4,Win32,59.54153022,2,learning,0,resources/alien2_norm.png,0.7,resources/alien1_norm.png,0.3,TRUE,TRUE,3,0.651022148,red,m,0.2996,alien1,TRUE,2,0.296502093,111,1,0.3,m,0.491,0,179,179,179,1,0.3,0.7,0.4,0.6,TRUE,,,,,,,,,,,,,,,,,,,,,,,,,,,,,,,,,
GOSH_A1,2023-11-09_10h55.21.039,two_step_task_legacy,2022.2.4,Win32,59.54153022,2,learning,0,resources/alien1_norm.png,0.3,resources/alien2_norm.png,0.7,TRUE,TRUE,3,0.600879247,red,m,0.2345,alien1,TRUE,3,0.791552436,111,0,0.3,x,0.6617,0,180,180,180,1,0.3,0.7,0.4,0.6,FALSE,,,,,,,,,,,,,,,,,,,,,,,,,,,,,,,,,
GOSH_A1,2023-11-09_10h55.21.039,two_step_task_legacy,2022.2.4,Win32,59.54153022,2,learning,0,resources/alien3_norm.png,0.4,resources/alien4_norm.png,0.6,TRUE,TRUE,2,0.034078402,purple,x,0.3812,alien3,TRUE,2,0.168625463,112,1,0.4,x,2.2347,0,181,181,181,1,0.3,0.7,0.4,0.6,FALSE,,,,,,,,,,,,,,,,,,,,,,,,,,,,,,,,,
GOSH_A1,2023-11-09_10h55.21.039,two_step_task_legacy,2022.2.4,Win32,59.54153022,2,learning,1,resources/alien1_norm.png,0.3,resources/alien2_norm.png,0.7,TRUE,TRUE,3,0.94459472,red,x,0.2681,alien1,TRUE,3,0.362593236,112,0,0.3,x,0.7961,0,182,182,182,1,0.3,0.7,0.4,0.6,FALSE,,,,,,,,,,,,,,,,,,,,,,,,,,,,,,,,,
GOSH_A1,2023-11-09_10h55.21.039,two_step_task_legacy,2022.2.4,Win32,59.54153022,2,learning,0,resources/alien3_norm.png,0.4,resources/alien4_norm.png,0.6,TRUE,TRUE,2,0.401009654,purple,x,0.2425,alien3,TRUE,3,0.775302647,112,0,0.4,x,0.579,0,183,183,183,1,0.3,0.7,0.4,0.6,FALSE,,,,,,,,,,,,,,,,,,,,,,,,,,,,,,,,,
GOSH_A1,2023-11-09_10h55.21.039,two_step_task_legacy,2022.2.4,Win32,59.54153022,2,learning,0,resources/alien2_norm.png,0.7,resources/alien1_norm.png,0.3,TRUE,TRUE,3,0.020938235,red,m,0.0506,alien2,TRUE,3,0.707102831,112,0,0.7,x,0.522,0,184,184,184,1,0.3,0.7,0.4,0.6,TRUE,,,,,,,,,,,,,,,,,,,,,,,,,,,,,,,,,
GOSH_A1,2023-11-09_10h55.21.039,two_step_task_legacy,2022.2.4,Win32,59.54153022,2,learning,1,resources/alien3_norm.png,0.4,resources/alien4_norm.png,0.6,TRUE,TRUE,2,0.982745325,purple,m,0.2223,alien4,TRUE,2,0.13384538,113,1,0.6,m,0.7669,0,185,185,185,1,0.3,0.7,0.4,0.6,FALSE,,,,,,,,,,,,,,,,,,,,,,,,,,,,,,,,,
GOSH_A1,2023-11-09_10h55.21.039,two_step_task_legacy,2022.2.4,Win32,59.54153022,2,learning,0,resources/alien3_norm.png,0.4,resources/alien4_norm.png,0.6,TRUE,TRUE,2,0.294823238,purple,x,0.5608,alien3,TRUE,2,0.034615681,114,1,0.4,x,0.5157,0,186,186,186,1,0.3,0.7,0.4,0.6,FALSE,,,,,,,,,,,,,,,,,,,,,,,,,,,,,,,,,
GOSH_A1,2023-11-09_10h55.21.039,two_step_task_legacy,2022.2.4,Win32,59.54153022,2,learning,0,resources/alien4_norm.png,0.6,resources/alien3_norm.png,0.4,TRUE,TRUE,2,0.685670724,purple,x,0.7149,alien4,TRUE,2,0.359340785,115,1,0.6,x,0.6966,0,187,187,187,1,0.3,0.7,0.4,0.6,TRUE,,,,,,,,,,,,,,,,,,,,,,,,,,,,,,,,,
GOSH_A1,2023-11-09_10h55.21.039,two_step_task_legacy,2022.2.4,Win32,59.54153022,2,learning,0,resources/alien4_norm.png,0.6,resources/alien3_norm.png,0.4,TRUE,TRUE,2,0.060175417,purple,x,0.2663,alien4,TRUE,2,0.461524264,116,1,0.6,x,0.6063,0,188,188,188,1,0.3,0.7,0.4,0.6,TRUE,,,,,,,,,,,,,,,,,,,,,,,,,,,,,,,,,
GOSH_A1,2023-11-09_10h55.21.039,two_step_task_legacy,2022.2.4,Win32,59.54153022,2,learning,0,resources/alien4_norm.png,0.6,resources/alien3_norm.png,0.4,TRUE,TRUE,2,0.506631609,purple,x,0.313,alien4,TRUE,3,0.801976947,116,0,0.6,x,0.5599,0,189,189,189,1,0.3,0.7,0.4,0.6,TRUE,,,,,,,,,,,,,,,,,,,,,,,,,,,,,,,,,
GOSH_A1,2023-11-09_10h55.21.039,two_step_task_legacy,2022.2.4,Win32,59.54153022,2,learning,0,resources/alien3_norm.png,0.4,resources/alien4_norm.png,0.6,TRUE,TRUE,2,0.169836331,purple,x,0.4004,alien4,TRUE,3,0.629514727,116,0,0.6,m,0.5914,0,190,190,190,1,0.3,0.7,0.4,0.6,FALSE,,,,,,,,,,,,,,,,,,,,,,,,,,,,,,,,,
GOSH_A1,2023-11-09_10h55.21.039,two_step_task_legacy,2022.2.4,Win32,59.54153022,2,learning,1,resources/alien1_norm.png,0.3,resources/alien2_norm.png,0.7,TRUE,TRUE,3,0.750274812,red,x,0.083,alien2,TRUE,3,0.866078481,116,0,0.7,m,1.4563,0,191,191,191,1,0.3,0.7,0.4,0.6,FALSE,,,,,,,,,,,,,,,,,,,,,,,,,,,,,,,,,
GOSH_A1,2023-11-09_10h55.21.039,two_step_task_legacy,2022.2.4,Win32,59.54153022,2,learning,0,resources/alien1_norm.png,0.3,resources/alien2_norm.png,0.7,TRUE,TRUE,3,0.28189639,red,m,0.6741,alien1,TRUE,3,0.476199141,116,0,0.3,x,0.5175,0,192,192,192,1,0.3,0.7,0.4,0.6,FALSE,,,,,,,,,,,,,,,,,,,,,,,,,,,,,,,,,
GOSH_A1,2023-11-09_10h55.21.039,two_step_task_legacy,2022.2.4,Win32,59.54153022,2,learning,0,resources/alien3_norm.png,0.4,resources/alien4_norm.png,0.6,TRUE,TRUE,2,0.125597962,purple,x,0.2674,alien3,TRUE,3,0.596693248,116,0,0.4,x,0.5661,0,193,193,193,1,0.3,0.7,0.4,0.6,FALSE,,,,,,,,,,,,,,,,,,,,,,,,,,,,,,,,,
GOSH_A1,2023-11-09_10h55.21.039,two_step_task_legacy,2022.2.4,Win32,59.54153022,2,learning,0,resources/alien3_norm.png,0.4,resources/alien4_norm.png,0.6,TRUE,TRUE,2,0.472479194,purple,x,0.2885,alien4,TRUE,2,0.021743881,117,1,0.6,m,0.8902,0,194,194,194,1,0.3,0.7,0.4,0.6,FALSE,,,,,,,,,,,,,,,,,,,,,,,,,,,,,,,,,
GOSH_A1,2023-11-09_10h55.21.039,two_step_task_legacy,2022.2.4,Win32,59.54153022,2,learning,1,resources/alien2_norm.png,0.7,resources/alien1_norm.png,0.3,TRUE,TRUE,3,0.834897597,red,x,0.3252,alien1,TRUE,3,0.446530418,117,0,0.3,m,1.6043,0,195,195,195,1,0.3,0.7,0.4,0.6,TRUE,,,,,,,,,,,,,,,,,,,,,,,,,,,,,,,,,
GOSH_A1,2023-11-09_10h55.21.039,two_step_task_legacy,2022.2.4,Win32,59.54153022,2,learning,0,resources/alien3_norm.png,0.4,resources/alien4_norm.png,0.6,TRUE,TRUE,2,0.097358673,purple,x,0.2928,alien4,TRUE,2,0.202076596,118,1,0.6,m,0.8994,0,196,196,196,1,0.3,0.7,0.4,0.6,FALSE,,,,,,,,,,,,,,,,,,,,,,,,,,,,,,,,,
GOSH_A1,2023-11-09_10h55.21.039,two_step_task_legacy,2022.2.4,Win32,59.54153022,2,learning,0,resources/alien3_norm.png,0.4,resources/alien4_norm.png,0.6,TRUE,TRUE,2,0.450319689,purple,x,0.2664,alien4,TRUE,2,0.457054521,119,1,0.6,m,0.5756,0,197,197,197,1,0.3,0.7,0.4,0.6,FALSE,,,,,,,,,,,,,,,,,,,,,,,,,,,,,,,,,
GOSH_A1,2023-11-09_10h55.21.039,two_step_task_legacy,2022.2.4,Win32,59.54153022,2,learning,1,resources/alien1_norm.png,0.3,resources/alien2_norm.png,0.7,TRUE,TRUE,3,0.701117004,red,x,0.344,alien1,TRUE,3,0.536335267,119,0,0.3,x,1.4005,0,198,198,198,1,0.3,0.7,0.4,0.6,FALSE,,,,,,,,,,,,,,,,,,,,,,,,,,,,,,,,,
GOSH_A1,2023-11-09_10h55.21.039,two_step_task_legacy,2022.2.4,Win32,59.54153022,2,learning,1,resources/alien2_norm.png,0.7,resources/alien1_norm.png,0.3,TRUE,TRUE,3,0.807043547,red,x,0.2612,alien2,TRUE,2,0.350650325,120,1,0.7,x,1.0438,0,199,199,199,1,0.3,0.7,0.4,0.6,TRUE,,,,,,,,,,,,,,,,,,,,,,,,,,,,,,,,,
GOSH_A1,2023-11-09_10h55.21.039,two_step_task_legacy,2022.2.4,Win32,59.54153022,2,learning,0,resources/alien3_norm.png,0.4,resources/alien4_norm.png,0.6,TRUE,TRUE,2,0.475424401,purple,x,0.2499,alien4,TRUE,2,0.159692291,121,1,0.6,m,0.5945,0,200,200,200,1,0.3,0.7,0.4,0.6,FALSE,,,,,,,,,,,,,,,,,,,,,,,,,,,,,,,,,
GOSH_A1,2023-11-09_10h55.21.039,two_step_task_legacy,2022.2.4,Win32,59.54153022,2,learning,1,resources/alien1_norm.png,0.3,resources/alien2_norm.png,0.7,TRUE,TRUE,3,0.755933114,red,x,0.2603,alien2,TRUE,3,0.876073484,121,0,0.7,m,0.9864,0,201,201,201,1,0.3,0.7,0.4,0.6,FALSE,,,,,,,,,,,,,,,,,,,,,,,,,,,,,,,,,
GOSH_A1,2023-11-09_10h55.21.039,two_step_task_legacy,2022.2.4,Win32,59.54153022,2,learning,1,resources/alien1_norm.png,0.3,resources/alien2_norm.png,0.7,TRUE,TRUE,3,0.828880425,red,x,0.233,alien2,TRUE,3,0.907496555,121,0,0.7,m,0.7345,0,202,202,202,1,0.3,0.7,0.4,0.6,FALSE,,,,,,,,,,,,,,,,,,,,,,,,,,,,,,,,,
GOSH_A1,2023-11-09_10h55.21.039,two_step_task_legacy,2022.2.4,Win32,59.54153022,2,learning,0,resources/alien4_norm.png,0.6,resources/alien3_norm.png,0.4,TRUE,TRUE,2,0.098337191,purple,x,0.4333,alien4,TRUE,2,0.232785319,122,1,0.6,x,0.6901,0,203,203,203,1,0.3,0.7,0.4,0.6,TRUE,,,,,,,,,,,,,,,,,,,,,,,,,,,,,,,,,
GOSH_A1,2023-11-09_10h55.21.039,two_step_task_legacy,2022.2.4,Win32,59.54153022,2,learning,0,resources/alien3_norm.png,0.4,resources/alien4_norm.png,0.6,TRUE,TRUE,2,0.596539465,purple,x,0.5114,alien4,TRUE,2,0.518475789,123,1,0.6,m,0.6543,0,204,204,204,1,0.3,0.7,0.4,0.6,FALSE,,,,,,,,,,,,,,,,,,,,,,,,,,,,,,,,,
GOSH_A1,2023-11-09_10h55.21.039,two_step_task_legacy,2022.2.4,Win32,59.54153022,2,learning,0,resources/alien4_norm.png,0.6,resources/alien3_norm.png,0.4,TRUE,TRUE,2,0.155425815,purple,x,0.2892,alien4,TRUE,2,0.530293839,124,1,0.6,x,1.0375,0,205,205,205,1,0.3,0.7,0.4,0.6,TRUE,,,,,,,,,,,,,,,,,,,,,,,,,,,,,,,,,
GOSH_A1,2023-11-09_10h55.21.039,two_step_task_legacy,2022.2.4,Win32,59.54153022,2,learning,1,resources/alien2_norm.png,0.7,resources/alien1_norm.png,0.3,TRUE,TRUE,3,0.939446487,red,x,0.5737,alien2,TRUE,2,0.096519999,125,1,0.7,x,1.5934,0,206,206,206,1,0.3,0.7,0.4,0.6,TRUE,,,,,,,,,,,,,,,,,,,,,,,,,,,,,,,,,
GOSH_A1,2023-11-09_10h55.21.039,two_step_task_legacy,2022.2.4,Win32,59.54153022,2,learning,0,resources/alien3_norm.png,0.4,resources/alien4_norm.png,0.6,TRUE,TRUE,2,0.375126187,purple,x,0.2675,alien4,TRUE,3,0.673111419,125,0,0.6,m,0.9604,0,207,207,207,1,0.3,0.7,0.4,0.6,FALSE,,,,,,,,,,,,,,,,,,,,,,,,,,,,,,,,,
GOSH_A1,2023-11-09_10h55.21.039,two_step_task_legacy,2022.2.4,Win32,59.54153022,2,learning,0,resources/alien3_norm.png,0.4,resources/alien4_norm.png,0.6,TRUE,TRUE,2,0.516452108,purple,x,0.2262,alien4,TRUE,2,0.501076538,126,1,0.6,m,0.4541,0,208,208,208,1,0.3,0.7,0.4,0.6,FALSE,,,,,,,,,,,,,,,,,,,,,,,,,,,,,,,,,
GOSH_A1,2023-11-09_10h55.21.039,two_step_task_legacy,2022.2.4,Win32,59.54153022,2,learning,0,resources/alien4_norm.png,0.6,resources/alien3_norm.png,0.4,TRUE,TRUE,2,0.052076702,purple,x,0.2887,alien4,TRUE,3,0.850425044,126,0,0.6,x,0.6598,0,209,209,209,1,0.3,0.7,0.4,0.6,TRUE,,,,,,,,,,,,,,,,,,,,,,,,,,,,,,,,,
GOSH_A1,2023-11-09_10h55.21.039,two_step_task_legacy,2022.2.4,Win32,59.54153022,2,learning,0,resources/alien2_norm.png,0.7,resources/alien1_norm.png,0.3,TRUE,TRUE,3,0.029608587,red,m,0.2223,alien2,TRUE,3,0.787093173,126,0,0.7,x,0.52,0,210,210,210,1,0.3,0.7,0.4,0.6,TRUE,,,,,,,,,,,,,,,,,,,,,,,,,,,,,,,,,
GOSH_A1,2023-11-09_10h55.21.039,two_step_task_legacy,2022.2.4,Win32,59.54153022,2,learning,1,resources/alien2_norm.png,0.7,resources/alien1_norm.png,0.3,TRUE,TRUE,3,0.941307335,red,x,0.4709,alien2,TRUE,3,0.793919319,126,0,0.7,x,0.8597,0,211,211,211,1,0.3,0.7,0.4,0.6,TRUE,,,,,,,,,,,,,,,,,,,,,,,,,,,,,,,,,
GOSH_A1,2023-11-09_10h55.21.039,two_step_task_legacy,2022.2.4,Win32,59.54153022,2,learning,0,resources/alien3_norm.png,0.4,resources/alien4_norm.png,0.6,TRUE,TRUE,2,0.322030355,purple,x,0.22,alien3,TRUE,2,0.273556098,127,1,0.4,x,0.7269,0,212,212,212,1,0.3,0.7,0.4,0.6,FALSE,,,,,,,,,,,,,,,,,,,,,,,,,,,,,,,,,
GOSH_A1,2023-11-09_10h55.21.039,two_step_task_legacy,2022.2.4,Win32,59.54153022,2,learning,0,resources/alien3_norm.png,0.4,resources/alien4_norm.png,0.6,TRUE,TRUE,2,0.274835744,purple,x,0.2481,alien3,TRUE,3,0.972709057,127,0,0.4,x,0.4594,0,213,213,213,1,0.3,0.7,0.4,0.6,FALSE,,,,,,,,,,,,,,,,,,,,,,,,,,,,,,,,,
GOSH_A1,2023-11-09_10h55.21.039,two_step_task_legacy,2022.2.4,Win32,59.54153022,2,learning,0,resources/alien2_norm.png,0.7,resources/alien1_norm.png,0.3,TRUE,TRUE,3,0.516650943,red,m,0.27,alien1,TRUE,3,0.742923232,127,0,0.3,m,0.3599,0,214,214,214,1,0.3,0.7,0.4,0.6,TRUE,,,,,,,,,,,,,,,,,,,,,,,,,,,,,,,,,
GOSH_A1,2023-11-09_10h55.21.039,two_step_task_legacy,2022.2.4,Win32,59.54153022,2,learning,1,resources/alien4_norm.png,0.6,resources/alien3_norm.png,0.4,TRUE,TRUE,2,0.951856469,purple,m,0.299,alien4,TRUE,3,0.898722013,127,0,0.6,x,0.7199,0,215,215,215,1,0.3,0.7,0.4,0.6,TRUE,,,,,,,,,,,,,,,,,,,,,,,,,,,,,,,,,
GOSH_A1,2023-11-09_10h55.21.039,two_step_task_legacy,2022.2.4,Win32,59.54153022,2,learning,0,resources/alien3_norm.png,0.4,resources/alien4_norm.png,0.6,TRUE,TRUE,2,0.440666961,purple,x,0.0998,alien3,TRUE,3,0.431201931,127,0,0.4,x,0.636,0,216,216,216,1,0.3,0.7,0.4,0.6,FALSE,,,,,,,,,,,,,,,,,,,,,,,,,,,,,,,,,
GOSH_A1,2023-11-09_10h55.21.039,two_step_task_legacy,2022.2.4,Win32,59.54153022,2,learning,1,resources/alien1_norm.png,0.3,resources/alien2_norm.png,0.7,TRUE,TRUE,3,0.917478914,red,x,0.2415,alien1,TRUE,2,0.034744209,128,1,0.3,x,1.424,0,217,217,217,1,0.3,0.7,0.4,0.6,FALSE,,,,,,,,,,,,,,,,,,,,,,,,,,,,,,,,,
GOSH_A1,2023-11-09_10h55.21.039,two_step_task_legacy,2022.2.4,Win32,59.54153022,2,learning,0,resources/alien4_norm.png,0.6,resources/alien3_norm.png,0.4,TRUE,TRUE,2,0.385691703,purple,x,0.3306,alien3,TRUE,3,0.550359476,128,0,0.4,m,0.7701,0,218,218,218,1,0.3,0.7,0.4,0.6,TRUE,,,,,,,,,,,,,,,,,,,,,,,,,,,,,,,,,
GOSH_A1,2023-11-09_10h55.21.039,two_step_task_legacy,2022.2.4,Win32,59.54153022,2,learning,1,resources/alien3_norm.png,0.4,resources/alien4_norm.png,0.6,TRUE,TRUE,2,0.82933214,purple,m,0.0006,alien4,TRUE,3,0.900411575,128,0,0.6,m,1.1621,0,219,219,219,1,0.3,0.7,0.4,0.6,FALSE,,,,,,,,,,,,,,,,,,,,,,,,,,,,,,,,,
GOSH_A1,2023-11-09_10h55.21.039,two_step_task_legacy,2022.2.4,Win32,59.54153022,2,learning,1,resources/alien3_norm.png,0.4,resources/alien4_norm.png,0.6,TRUE,TRUE,2,0.726437633,purple,m,0.433,alien3,TRUE,3,0.633943318,128,0,0.4,x,0.6731,0,220,220,220,1,0.3,0.7,0.4,0.6,FALSE,,,,,,,,,,,,,,,,,,,,,,,,,,,,,,,,,
GOSH_A1,2023-11-09_10h55.21.039,two_step_task_legacy,2022.2.4,Win32,59.54153022,2,learning,1,resources/alien4_norm.png,0.6,resources/alien3_norm.png,0.4,TRUE,TRUE,2,0.768340334,purple,m,0.2044,alien3,TRUE,3,0.616678832,128,0,0.4,m,1.0902,0,221,221,221,1,0.3,0.7,0.4,0.6,TRUE,,,,,,,,,,,,,,,,,,,,,,,,,,,,,,,,,
GOSH_A1,2023-11-09_10h55.21.039,two_step_task_legacy,2022.2.4,Win32,59.54153022,2,learning,0,resources/alien4_norm.png,0.6,resources/alien3_norm.png,0.4,TRUE,TRUE,2,0.581193185,purple,x,0.2669,alien4,TRUE,3,0.947936771,128,0,0.6,x,1.7987,0,222,222,222,1,0.3,0.7,0.4,0.6,TRUE,,,,,,,,,,,,,,,,,,,,,,,,,,,,,,,,,
GOSH_A1,2023-11-09_10h55.21.039,two_step_task_legacy,2022.2.4,Win32,59.54153022,2,learning,0,resources/alien1_norm.png,0.3,resources/alien2_norm.png,0.7,TRUE,TRUE,3,0.422570949,red,m,0.334,alien1,TRUE,2,0.293981451,129,1,0.3,x,0.6537,0,223,223,223,1,0.3,0.7,0.4,0.6,FALSE,,,,,,,,,,,,,,,,,,,,,,,,,,,,,,,,,
GOSH_A1,2023-11-09_10h55.21.039,two_step_task_legacy,2022.2.4,Win32,59.54153022,2,learning,0,resources/alien1_norm.png,0.3,resources/alien2_norm.png,0.7,TRUE,TRUE,3,0.556840324,red,m,0.3559,alien1,TRUE,2,0.126033532,130,1,0.3,x,0.6056,0,224,224,224,1,0.3,0.7,0.4,0.6,FALSE,,,,,,,,,,,,,,,,,,,,,,,,,,,,,,,,,
GOSH_A1,2023-11-09_10h55.21.039,two_step_task_legacy,2022.2.4,Win32,59.54153022,2,learning,1,resources/alien3_norm.png,0.4,resources/alien4_norm.png,0.6,TRUE,TRUE,2,0.929568441,purple,m,0.415,alien4,TRUE,3,0.995286608,130,0,0.6,m,1.1561,0,225,225,225,1,0.3,0.7,0.4,0.6,FALSE,,,,,,,,,,,,,,,,,,,,,,,,,,,,,,,,,
GOSH_A1,2023-11-09_10h55.21.039,two_step_task_legacy,2022.2.4,Win32,59.54153022,2,learning,0,resources/alien1_norm.png,0.3,resources/alien2_norm.png,0.7,TRUE,TRUE,3,0.024737249,red,m,0.2663,alien1,TRUE,2,0.095036969,131,1,0.3,x,0.6077,0,226,226,226,1,0.3,0.7,0.4,0.6,FALSE,,,,,,,,,,,,,,,,,,,,,,,,,,,,,,,,,
GOSH_A1,2023-11-09_10h55.21.039,two_step_task_legacy,2022.2.4,Win32,59.54153022,2,learning,1,resources/alien3_norm.png,0.4,resources/alien4_norm.png,0.6,TRUE,TRUE,2,0.990693556,purple,m,0.4159,alien3,TRUE,2,0.100360511,132,1,0.4,x,1.594,0,227,227,227,1,0.3,0.7,0.4,0.6,FALSE,,,,,,,,,,,,,,,,,,,,,,,,,,,,,,,,,
GOSH_A1,2023-11-09_10h55.21.039,two_step_task_legacy,2022.2.4,Win32,59.54153022,2,learning,0,resources/alien1_norm.png,0.3,resources/alien2_norm.png,0.7,TRUE,TRUE,3,0.6660401,red,m,0.227,alien1,TRUE,3,0.328951943,132,0,0.3,x,0.4499,0,228,228,228,1,0.3,0.7,0.4,0.6,FALSE,,,,,,,,,,,,,,,,,,,,,,,,,,,,,,,,,
GOSH_A1,2023-11-09_10h55.21.039,two_step_task_legacy,2022.2.4,Win32,59.54153022,2,learning,0,resources/alien4_norm.png,0.6,resources/alien3_norm.png,0.4,TRUE,TRUE,2,0.56020885,purple,x,0.2873,alien3,TRUE,3,0.762661945,132,0,0.4,m,0.5763,0,229,229,229,1,0.3,0.7,0.4,0.6,TRUE,,,,,,,,,,,,,,,,,,,,,,,,,,,,,,,,,
GOSH_A1,2023-11-09_10h55.21.039,two_step_task_legacy,2022.2.4,Win32,59.54153022,2,learning,0,resources/alien2_norm.png,0.7,resources/alien1_norm.png,0.3,TRUE,TRUE,3,0.15697472,red,m,0.2481,alien1,TRUE,3,0.596304828,132,0,0.3,m,0.6002,0,230,230,230,1,0.3,0.7,0.4,0.6,TRUE,,,,,,,,,,,,,,,,,,,,,,,,,,,,,,,,,
GOSH_A1,2023-11-09_10h55.21.039,two_step_task_legacy,2022.2.4,Win32,59.54153022,2,learning,0,resources/alien2_norm.png,0.7,resources/alien1_norm.png,0.3,TRUE,TRUE,3,0.017647946,red,m,0.2239,alien1,TRUE,3,0.78507475,132,0,0.3,m,0.4294,0,231,231,231,1,0.3,0.7,0.4,0.6,TRUE,,,,,,,,,,,,,,,,,,,,,,,,,,,,,,,,,
GOSH_A1,2023-11-09_10h55.21.039,two_step_task_legacy,2022.2.4,Win32,59.54153022,2,learning,0,resources/alien1_norm.png,0.3,resources/alien2_norm.png,0.7,TRUE,TRUE,3,0.242583984,red,m,0.1726,alien2,TRUE,3,0.702600869,132,0,0.7,m,0.6343,0,232,232,232,1,0.3,0.7,0.4,0.6,FALSE,,,,,,,,,,,,,,,,,,,,,,,,,,,,,,,,,
GOSH_A1,2023-11-09_10h55.21.039,two_step_task_legacy,2022.2.4,Win32,59.54153022,2,learning,0,resources/alien4_norm.png,0.6,resources/alien3_norm.png,0.4,TRUE,TRUE,2,0.4566946,purple,x,0.2509,alien3,TRUE,3,0.824887404,132,0,0.4,m,0.4774,0,233,233,233,1,0.3,0.7,0.4,0.6,TRUE,,,,,,,,,,,,,,,,,,,,,,,,,,,,,,,,,
GOSH_A1,2023-11-09_10h55.21.039,two_step_task_legacy,2022.2.4,Win32,59.54153022,2,learning,0,resources/alien4_norm.png,0.6,resources/alien3_norm.png,0.4,TRUE,TRUE,2,0.199746797,purple,x,0.5885,alien3,TRUE,2,0.10815656,133,1,0.4,m,0.5209,0,234,234,234,1,0.3,0.7,0.4,0.6,TRUE,,,,,,,,,,,,,,,,,,,,,,,,,,,,,,,,,
GOSH_A1,2023-11-09_10h55.21.039,two_step_task_legacy,2022.2.4,Win32,59.54153022,2,learning,1,resources/alien1_norm.png,0.3,resources/alien2_norm.png,0.7,TRUE,TRUE,3,0.94706176,red,x,0.2841,alien1,TRUE,3,0.604581171,133,0,0.3,x,1.553,0,235,235,235,1,0.3,0.7,0.4,0.6,FALSE,,,,,,,,,,,,,,,,,,,,,,,,,,,,,,,,,
GOSH_A1,2023-11-09_10h55.21.039,two_step_task_legacy,2022.2.4,Win32,59.54153022,2,learning,1,resources/alien1_norm.png,0.3,resources/alien2_norm.png,0.7,TRUE,TRUE,3,0.768171152,red,x,0.3175,alien2,TRUE,2,0.006041214,134,1,0.7,m,0.822,0,236,236,236,1,0.3,0.7,0.4,0.6,FALSE,,,,,,,,,,,,,,,,,,,,,,,,,,,,,,,,,
GOSH_A1,2023-11-09_10h55.21.039,two_step_task_legacy,2022.2.4,Win32,59.54153022,2,learning,1,resources/alien2_norm.png,0.7,resources/alien1_norm.png,0.3,TRUE,TRUE,3,0.792177565,red,x,0.2511,alien2,TRUE,2,0.668992922,135,1,0.7,x,0.645,0,237,237,237,1,0.3,0.7,0.4,0.6,TRUE,,,,,,,,,,,,,,,,,,,,,,,,,,,,,,,,,
GOSH_A1,2023-11-09_10h55.21.039,two_step_task_legacy,2022.2.4,Win32,59.54153022,2,learning,0,resources/alien4_norm.png,0.6,resources/alien3_norm.png,0.4,TRUE,TRUE,2,0.534792174,purple,x,0.2502,alien3,TRUE,3,0.788273682,135,0,0.4,m,0.4503,0,238,238,238,1,0.3,0.7,0.4,0.6,TRUE,,,,,,,,,,,,,,,,,,,,,,,,,,,,,,,,,
GOSH_A1,2023-11-09_10h55.21.039,two_step_task_legacy,2022.2.4,Win32,59.54153022,2,learning,0,resources/alien4_norm.png,0.6,resources/alien3_norm.png,0.4,TRUE,TRUE,2,0.426302215,purple,x,0.1841,alien3,TRUE,3,0.891453535,135,0,0.4,m,0.7032,0,239,239,239,1,0.3,0.7,0.4,0.6,TRUE,,,,,,,,,,,,,,,,,,,,,,,,,,,,,,,,,
GOSH_A1,2023-11-09_10h55.21.039,two_step_task_legacy,2022.2.4,Win32,59.54153022,2,learning,1,resources/alien4_norm.png,0.6,resources/alien3_norm.png,0.4,TRUE,TRUE,2,0.933847594,purple,m,0.7122,alien4,TRUE,2,0.592346145,136,1,0.6,x,1.5229,0,240,240,240,1,0.3,0.7,0.4,0.6,TRUE,,,,,,,,,,,,,,,,,,,,,,,,,,,,,,,,,
GOSH_A1,2023-11-09_10h55.21.039,two_step_task_legacy,2022.2.4,Win32,59.54153022,2,learning,0,resources/alien1_norm.png,0.3,resources/alien2_norm.png,0.7,TRUE,TRUE,3,0.35049285,red,m,0.3031,alien2,TRUE,2,0.095577817,137,1,0.7,m,0.4845,0,241,241,241,1,0.3,0.7,0.4,0.6,FALSE,,,,,,,,,,,,,,,,,,,,,,,,,,,,,,,,,
GOSH_A1,2023-11-09_10h55.21.039,two_step_task_legacy,2022.2.4,Win32,59.54153022,2,learning,0,resources/alien2_norm.png,0.7,resources/alien1_norm.png,0.3,TRUE,TRUE,3,0.646583902,red,m,0.2278,alien2,TRUE,2,0.539326813,138,1,0.7,x,0.4957,0,242,242,242,1,0.3,0.7,0.4,0.6,TRUE,,,,,,,,,,,,,,,,,,,,,,,,,,,,,,,,,
GOSH_A1,2023-11-09_10h55.21.039,two_step_task_legacy,2022.2.4,Win32,59.54153022,2,learning,1,resources/alien4_norm.png,0.6,resources/alien3_norm.png,0.4,TRUE,TRUE,2,0.899878715,purple,m,0.2445,alien4,TRUE,2,0.430707098,139,1,0.6,x,1.1872,0,243,243,243,1,0.3,0.7,0.4,0.6,TRUE,,,,,,,,,,,,,,,,,,,,,,,,,,,,,,,,,
GOSH_A1,2023-11-09_10h55.21.039,two_step_task_legacy,2022.2.4,Win32,59.54153022,2,learning,0,resources/alien1_norm.png,0.3,resources/alien2_norm.png,0.7,TRUE,TRUE,3,0.225622737,red,m,0.2876,alien2,TRUE,2,0.146457606,140,1,0.7,m,0.5725,0,244,244,244,1,0.3,0.7,0.4,0.6,FALSE,,,,,,,,,,,,,,,,,,,,,,,,,,,,,,,,,
GOSH_A1,2023-11-09_10h55.21.039,two_step_task_legacy,2022.2.4,Win32,59.54153022,2,learning,0,resources/alien2_norm.png,0.7,resources/alien1_norm.png,0.3,TRUE,TRUE,3,0.417053755,red,m,0.1951,alien2,TRUE,2,0.283143762,141,1,0.7,x,0.623,0,245,245,245,1,0.3,0.7,0.4,0.6,TRUE,,,,,,,,,,,,,,,,,,,,,,,,,,,,,,,,,
GOSH_A1,2023-11-09_10h55.21.039,two_step_task_legacy,2022.2.4,Win32,59.54153022,2,learning,1,resources/alien3_norm.png,0.4,resources/alien4_norm.png,0.6,TRUE,TRUE,2,0.900889488,purple,m,0.2394,alien4,TRUE,2,0.130266256,142,1,0.6,m,0.6826,0,246,246,246,1,0.3,0.7,0.4,0.6,FALSE,,,,,,,,,,,,,,,,,,,,,,,,,,,,,,,,,
GOSH_A1,2023-11-09_10h55.21.039,two_step_task_legacy,2022.2.4,Win32,59.54153022,2,learning,1,resources/alien3_norm.png,0.4,resources/alien4_norm.png,0.6,TRUE,TRUE,2,0.876935977,purple,m,0.068,alien4,TRUE,2,0.189770453,143,1,0.6,m,0.4861,0,247,247,247,1,0.3,0.7,0.4,0.6,FALSE,,,,,,,,,,,,,,,,,,,,,,,,,,,,,,,,,
GOSH_A1,2023-11-09_10h55.21.039,two_step_task_legacy,2022.2.4,Win32,59.54153022,2,learning,1,resources/alien4_norm.png,0.6,resources/alien3_norm.png,0.4,TRUE,TRUE,2,0.702954696,purple,m,0.1881,alien4,TRUE,2,0.02800888,144,1,0.6,x,0.5712,0,248,248,248,1,0.3,0.7,0.4,0.6,TRUE,,,,,,,,,,,,,,,,,,,,,,,,,,,,,,,,,
GOSH_A1,2023-11-09_10h55.21.039,two_step_task_legacy,2022.2.4,Win32,59.54153022,2,learning,0,resources/alien2_norm.png,0.7,resources/alien1_norm.png,0.3,TRUE,TRUE,3,0.346536627,red,m,0.233,alien2,TRUE,3,0.865878643,144,0,0.7,x,0.5328,0,249,249,249,1,0.3,0.7,0.4,0.6,TRUE,,,,,,,,,,,,,,,,,,,,,,,,,,,,,,,,,
GOSH_A1,2023-11-09_10h55.21.039,two_step_task_legacy,2022.2.4,Win32,59.54153022,2,learning,0,resources/alien3_norm.png,0.4,resources/alien4_norm.png,0.6,TRUE,TRUE,2,0.661817571,purple,x,0.2281,alien4,TRUE,2,0.343305604,145,1,0.6,m,0.5945,0,250,250,250,1,0.3,0.7,0.4,0.6,FALSE,,,,,,,,,,,,,,,,,,,,,,,,,,,,,,,,,
GOSH_A1,2023-11-09_10h55.21.039,two_step_task_legacy,2022.2.4,Win32,59.54153022,2,learning,0,resources/alien3_norm.png,0.4,resources/alien4_norm.png,0.6,TRUE,TRUE,2,0.400084924,purple,x,0.2057,alien4,TRUE,2,0.325089501,146,1,0.6,m,0.6126,0,251,251,251,1,0.3,0.7,0.4,0.6,FALSE,,,,,,,,,,,,,,,,,,,,,,,,,,,,,,,,,
GOSH_A1,2023-11-09_10h55.21.039,two_step_task_legacy,2022.2.4,Win32,59.54153022,2,learning,0,resources/alien3_norm.png,0.4,resources/alien4_norm.png,0.6,TRUE,TRUE,2,0.218228937,purple,x,0.7078,alien4,TRUE,2,0.453511484,147,1,0.6,m,0.5237,0,252,252,252,1,0.3,0.7,0.4,0.6,FALSE,,,,,,,,,,,,,,,,,,,,,,,,,,,,,,,,,
GOSH_A1,2023-11-09_10h55.21.039,two_step_task_legacy,2022.2.4,Win32,59.54153022,2,learning,0,resources/alien4_norm.png,0.6,resources/alien3_norm.png,0.4,TRUE,TRUE,2,0.451438449,purple,x,0.411,alien4,TRUE,3,0.920762887,147,0,0.6,x,0.5175,0,253,253,253,1,0.3,0.7,0.4,0.6,TRUE,,,,,,,,,,,,,,,,,,,,,,,,,,,,,,,,,
GOSH_A1,2023-11-09_10h55.21.039,two_step_task_legacy,2022.2.4,Win32,59.54153022,2,learning,0,resources/alien3_norm.png,0.4,resources/alien4_norm.png,0.6,TRUE,TRUE,2,0.335175252,purple,x,0.379,alien4,TRUE,3,0.844890761,147,0,0.6,m,0.7124,0,254,254,254,1,0.3,0.7,0.4,0.6,FALSE,,,,,,,,,,,,,,,,,,,,,,,,,,,,,,,,,
GOSH_A1,2023-11-09_10h55.21.039,two_step_task_legacy,2022.2.4,Win32,59.54153022,2,learning,1,resources/alien3_norm.png,0.4,resources/alien4_norm.png,0.6,TRUE,TRUE,2,0.853589456,purple,m,0.2334,alien4,TRUE,2,0.207603672,148,1,0.6,m,0.6085,0,255,255,255,1,0.3,0.7,0.4,0.6,FALSE,,,,,,,,,,,,,,,,,,,,,,,,,,,,,,,,,
GOSH_A1,2023-11-09_10h55.21.039,two_step_task_legacy,2022.2.4,Win32,59.54153022,2,learning,0,resources/alien2_norm.png,0.7,resources/alien1_norm.png,0.3,TRUE,TRUE,3,0.694607997,red,m,0.3332,alien2,TRUE,3,0.83689157,148,0,0.7,x,0.5992,0,256,256,256,1,0.3,0.7,0.4,0.6,TRUE,,,,,,,,,,,,,,,,,,,,,,,,,,,,,,,,,
GOSH_A1,2023-11-09_10h55.21.039,two_step_task_legacy,2022.2.4,Win32,59.54153022,2,learning,1,resources/alien2_norm.png,0.7,resources/alien1_norm.png,0.3,TRUE,TRUE,3,0.808405359,red,x,0.3021,alien1,TRUE,3,0.365320476,148,0,0.3,m,1.0231,0,257,257,257,1,0.3,0.7,0.4,0.6,TRUE,,,,,,,,,,,,,,,,,,,,,,,,,,,,,,,,,
GOSH_A1,2023-11-09_10h55.21.039,two_step_task_legacy,2022.2.4,Win32,59.54153022,2,learning,1,resources/alien2_norm.png,0.7,resources/alien1_norm.png,0.3,TRUE,TRUE,3,0.756098547,red,x,0.2708,alien1,TRUE,3,0.888780296,148,0,0.3,m,0.4501,0,258,258,258,1,0.3,0.7,0.4,0.6,TRUE,,,,,,,,,,,,,,,,,,,,,,,,,,,,,,,,,
GOSH_A1,2023-11-09_10h55.21.039,two_step_task_legacy,2022.2.4,Win32,59.54153022,2,learning,1,resources/alien2_norm.png,0.7,resources/alien1_norm.png,0.3,TRUE,TRUE,3,0.936148143,red,x,0.3006,alien2,TRUE,2,0.17352058,149,1,0.7,x,0.7211,0,259,259,259,1,0.3,0.7,0.4,0.6,TRUE,,,,,,,,,,,,,,,,,,,,,,,,,,,,,,,,,
GOSH_A1,2023-11-09_10h55.21.039,two_step_task_legacy,2022.2.4,Win32,59.54153022,2,learning,0,resources/alien4_norm.png,0.6,resources/alien3_norm.png,0.4,TRUE,TRUE,2,0.446274483,purple,x,0.3892,alien4,TRUE,2,0.498549358,150,1,0.6,x,0.8504,0,260,260,260,1,0.3,0.7,0.4,0.6,TRUE,,,,,,,,,,,,,,,,,,,,,,,,,,,,,,,,,
GOSH_A1,2023-11-09_10h55.21.039,two_step_task_legacy,2022.2.4,Win32,59.54153022,2,learning,0,resources/alien1_norm.png,0.3,resources/alien2_norm.png,0.7,TRUE,TRUE,3,0.57412751,red,m,0.4665,alien2,TRUE,2,0.574094117,151,1,0.7,m,0.8571,0,261,261,261,1,0.3,0.7,0.4,0.6,FALSE,,,,,,,,,,,,,,,,,,,,,,,,,,,,,,,,,
GOSH_A1,2023-11-09_10h55.21.039,two_step_task_legacy,2022.2.4,Win32,59.54153022,2,learning,0,resources/alien4_norm.png,0.6,resources/alien3_norm.png,0.4,TRUE,TRUE,2,0.141532676,purple,x,0.2665,alien4,TRUE,3,0.774979525,151,0,0.6,x,0.6067,0,262,262,262,1,0.3,0.7,0.4,0.6,TRUE,,,,,,,,,,,,,,,,,,,,,,,,,,,,,,,,,
GOSH_A1,2023-11-09_10h55.21.039,two_step_task_legacy,2022.2.4,Win32,59.54153022,2,learning,0,resources/alien1_norm.png,0.3,resources/alien2_norm.png,0.7,TRUE,TRUE,3,0.414094869,red,m,0.2707,alien2,TRUE,2,0.402756905,152,1,0.7,m,0.5158,0,263,263,263,1,0.3,0.7,0.4,0.6,FALSE,,,,,,,,,,,,,,,,,,,,,,,,,,,,,,,,,
GOSH_A1,2023-11-09_10h55.21.039,two_step_task_legacy,2022.2.4,Win32,59.54153022,2,learning,0,resources/alien3_norm.png,0.4,resources/alien4_norm.png,0.6,TRUE,TRUE,2,0.160333889,purple,x,0.2329,alien4,TRUE,3,0.955507842,152,0,0.6,m,0.5541,0,264,264,264,1,0.3,0.7,0.4,0.6,FALSE,,,,,,,,,,,,,,,,,,,,,,,,,,,,,,,,,
GOSH_A1,2023-11-09_10h55.21.039,two_step_task_legacy,2022.2.4,Win32,59.54153022,2,learning,0,resources/alien1_norm.png,0.3,resources/alien2_norm.png,0.7,TRUE,TRUE,3,0.168442006,red,m,0.2036,alien2,TRUE,3,0.885824709,152,0,0.7,m,0.5283,0,265,265,265,1,0.3,0.7,0.4,0.6,FALSE,,,,,,,,,,,,,,,,,,,,,,,,,,,,,,,,,
GOSH_A1,2023-11-09_10h55.21.039,two_step_task_legacy,2022.2.4,Win32,59.54153022,2,learning,0,resources/alien2_norm.png,0.7,resources/alien1_norm.png,0.3,TRUE,TRUE,3,0.17782973,red,m,0.6,alien2,TRUE,3,0.967287805,152,0,0.7,x,0.5508,0,266,266,266,1,0.3,0.7,0.4,0.6,TRUE,,,,,,,,,,,,,,,,,,,,,,,,,,,,,,,,,
GOSH_A1,2023-11-09_10h55.21.039,two_step_task_legacy,2022.2.4,Win32,59.54153022,2,learning,1,resources/alien3_norm.png,0.4,resources/alien4_norm.png,0.6,TRUE,TRUE,2,0.820342187,purple,m,0.377,alien3,TRUE,3,0.549919327,152,0,0.4,x,1.0394,0,267,267,267,1,0.3,0.7,0.4,0.6,FALSE,,,,,,,,,,,,,,,,,,,,,,,,,,,,,,,,,
GOSH_A1,2023-11-09_10h55.21.039,two_step_task_legacy,2022.2.4,Win32,59.54153022,2,learning,0,resources/alien1_norm.png,0.3,resources/alien2_norm.png,0.7,TRUE,TRUE,3,0.568026401,red,m,0.5545,alien1,TRUE,2,0.115140319,153,1,0.3,x,0.6086,0,268,268,268,1,0.3,0.7,0.4,0.6,FALSE,,,,,,,,,,,,,,,,,,,,,,,,,,,,,,,,,
GOSH_A1,2023-11-09_10h55.21.039,two_step_task_legacy,2022.2.4,Win32,59.54153022,2,learning,1,resources/alien4_norm.png,0.6,resources/alien3_norm.png,0.4,TRUE,TRUE,2,0.982885774,purple,m,0.1887,alien3,TRUE,3,0.56054752,153,0,0.4,m,1.3109,0,269,269,269,1,0.3,0.7,0.4,0.6,TRUE,,,,,,,,,,,,,,,,,,,,,,,,,,,,,,,,,
GOSH_A1,2023-11-09_10h55.21.039,two_step_task_legacy,2022.2.4,Win32,59.54153022,2,learning,1,resources/alien3_norm.png,0.4,resources/alien4_norm.png,0.6,TRUE,TRUE,2,0.958252013,purple,m,0.4547,alien4,TRUE,3,0.728584856,153,0,0.6,m,1.0083,0,270,270,270,1,0.3,0.7,0.4,0.6,FALSE,,,,,,,,,,,,,,,,,,,,,,,,,,,,,,,,,
GOSH_A1,2023-11-09_10h55.21.039,two_step_task_legacy,2022.2.4,Win32,59.54153022,2,learning,0,resources/alien3_norm.png,0.4,resources/alien4_norm.png,0.6,TRUE,TRUE,2,0.65549897,purple,x,0.3512,alien3,TRUE,2,0.30470995,154,1,0.4,x,1.5351,0,271,271,271,1,0.3,0.7,0.4,0.6,FALSE,,,,,,,,,,,,,,,,,,,,,,,,,,,,,,,,,
GOSH_A1,2023-11-09_10h55.21.039,two_step_task_legacy,2022.2.4,Win32,59.54153022,2,learning,0,resources/alien1_norm.png,0.3,resources/alien2_norm.png,0.7,TRUE,TRUE,3,0.547684955,red,m,0.501,alien1,TRUE,2,0.188691967,155,1,0.3,x,0.5887,0,272,272,272,1,0.3,0.7,0.4,0.6,FALSE,,,,,,,,,,,,,,,,,,,,,,,,,,,,,,,,,
GOSH_A1,2023-11-09_10h55.21.039,two_step_task_legacy,2022.2.4,Win32,59.54153022,2,learning,1,resources/alien3_norm.png,0.4,resources/alien4_norm.png,0.6,TRUE,TRUE,2,0.77559453,purple,m,0.3166,alien3,TRUE,3,0.563020396,155,0,0.4,x,0.8502,0,273,273,273,1,0.3,0.7,0.4,0.6,FALSE,,,,,,,,,,,,,,,,,,,,,,,,,,,,,,,,,
GOSH_A1,2023-11-09_10h55.21.039,two_step_task_legacy,2022.2.4,Win32,59.54153022,2,learning,0,resources/alien2_norm.png,0.7,resources/alien1_norm.png,0.3,TRUE,TRUE,3,0.618852113,red,m,0.3498,alien1,TRUE,3,0.973032351,155,0,0.3,m,1.201,0,274,274,274,1,0.3,0.7,0.4,0.6,TRUE,,,,,,,,,,,,,,,,,,,,,,,,,,,,,,,,,
GOSH_A1,2023-11-09_10h55.21.039,two_step_task_legacy,2022.2.4,Win32,59.54153022,2,learning,0,resources/alien3_norm.png,0.4,resources/alien4_norm.png,0.6,TRUE,TRUE,2,0.021846698,purple,x,0.6177,alien3,TRUE,2,0.342977127,156,1,0.4,x,0.4942,0,275,275,275,1,0.3,0.7,0.4,0.6,FALSE,,,,,,,,,,,,,,,,,,,,,,,,,,,,,,,,,
GOSH_A1,2023-11-09_10h55.21.039,two_step_task_legacy,2022.2.4,Win32,59.54153022,2,learning,0,resources/alien4_norm.png,0.6,resources/alien3_norm.png,0.4,TRUE,TRUE,2,0.41773298,purple,x,0.2008,alien3,TRUE,2,0.164330255,157,1,0.4,m,0.5273,0,276,276,276,1,0.3,0.7,0.4,0.6,TRUE,,,,,,,,,,,,,,,,,,,,,,,,,,,,,,,,,
GOSH_A1,2023-11-09_10h55.21.039,two_step_task_legacy,2022.2.4,Win32,59.54153022,2,learning,0,resources/alien4_norm.png,0.6,resources/alien3_norm.png,0.4,TRUE,TRUE,2,0.594472748,purple,x,0.6461,alien3,TRUE,3,0.90512375,157,0,0.4,m,0.636,0,277,277,277,1,0.3,0.7,0.4,0.6,TRUE,,,,,,,,,,,,,,,,,,,,,,,,,,,,,,,,,
GOSH_A1,2023-11-09_10h55.21.039,two_step_task_legacy,2022.2.4,Win32,59.54153022,2,learning,0,resources/alien3_norm.png,0.4,resources/alien4_norm.png,0.6,TRUE,TRUE,2,0.216520939,purple,x,1.1338,alien3,TRUE,2,0.196038829,158,1,0.4,x,1.2507,0,278,278,278,1,0.3,0.7,0.4,0.6,FALSE,,,,,,,,,,,,,,,,,,,,,,,,,,,,,,,,,
GOSH_A1,2023-11-09_10h55.21.039,two_step_task_legacy,2022.2.4,Win32,59.54153022,2,learning,0,resources/alien3_norm.png,0.4,resources/alien4_norm.png,0.6,TRUE,TRUE,2,0.637137371,purple,x,0.2674,alien3,TRUE,3,0.583540442,158,0,0.4,x,0.4964,0,279,279,279,1,0.3,0.7,0.4,0.6,FALSE,,,,,,,,,,,,,,,,,,,,,,,,,,,,,,,,,
GOSH_A1,2023-11-09_10h55.21.039,two_step_task_legacy,2022.2.4,Win32,59.54153022,2,learning,0,resources/alien1_norm.png,0.3,resources/alien2_norm.png,0.7,TRUE,TRUE,3,0.414068146,red,m,0.2277,alien2,TRUE,2,0.520691929,159,1,0.7,m,0.4512,0,280,280,280,1,0.3,0.7,0.4,0.6,FALSE,,,,,,,,,,,,,,,,,,,,,,,,,,,,,,,,,
GOSH_A1,2023-11-09_10h55.21.039,two_step_task_legacy,2022.2.4,Win32,59.54153022,2,learning,1,resources/alien4_norm.png,0.6,resources/alien3_norm.png,0.4,TRUE,TRUE,2,0.986527571,purple,m,0.2241,alien4,TRUE,3,0.813460191,159,0,0.6,x,0.8589,0,281,281,281,1,0.3,0.7,0.4,0.6,TRUE,,,,,,,,,,,,,,,,,,,,,,,,,,,,,,,,,
GOSH_A1,2023-11-09_10h55.21.039,two_step_task_legacy,2022.2.4,Win32,59.54153022,2,learning,0,resources/alien1_norm.png,0.3,resources/alien2_norm.png,0.7,TRUE,TRUE,3,0.110966348,red,m,0.5858,alien2,TRUE,2,0.190643309,160,1,0.7,m,0.5974,0,282,282,282,1,0.3,0.7,0.4,0.6,FALSE,,,,,,,,,,,,,,,,,,,,,,,,,,,,,,,,,
GOSH_A1,2023-11-09_10h55.21.039,two_step_task_legacy,2022.2.4,Win32,59.54153022,2,learning,0,resources/alien1_norm.png,0.3,resources/alien2_norm.png,0.7,TRUE,TRUE,3,0.202776923,red,m,0.2778,alien2,TRUE,2,0.523137275,161,1,0.7,m,0.4841,0,283,283,283,1,0.3,0.7,0.4,0.6,FALSE,,,,,,,,,,,,,,,,,,,,,,,,,,,,,,,,,
GOSH_A1,2023-11-09_10h55.21.039,two_step_task_legacy,2022.2.4,Win32,59.54153022,2,learning,1,resources/alien4_norm.png,0.6,resources/alien3_norm.png,0.4,TRUE,TRUE,2,0.771110112,purple,m,0.234,alien3,TRUE,2,0.130166934,162,1,0.4,m,1.6786,0,284,284,284,1,0.3,0.7,0.4,0.6,TRUE,,,,,,,,,,,,,,,,,,,,,,,,,,,,,,,,,
GOSH_A1,2023-11-09_10h55.21.039,two_step_task_legacy,2022.2.4,Win32,59.54153022,2,learning,0,resources/alien1_norm.png,0.3,resources/alien2_norm.png,0.7,TRUE,TRUE,3,0.233648285,red,m,0.1241,alien2,TRUE,3,0.936787958,162,0,0.7,m,0.447,0,285,285,285,1,0.3,0.7,0.4,0.6,FALSE,,,,,,,,,,,,,,,,,,,,,,,,,,,,,,,,,
GOSH_A1,2023-11-09_10h55.21.039,two_step_task_legacy,2022.2.4,Win32,59.54153022,2,learning,0,resources/alien3_norm.png,0.4,resources/alien4_norm.png,0.6,TRUE,TRUE,2,0.312744321,purple,x,0.4114,alien3,TRUE,3,0.606654542,162,0,0.4,x,1.7343,0,286,286,286,1,0.3,0.7,0.4,0.6,FALSE,,,,,,,,,,,,,,,,,,,,,,,,,,,,,,,,,
GOSH_A1,2023-11-09_10h55.21.039,two_step_task_legacy,2022.2.4,Win32,59.54153022,2,learning,1,resources/alien3_norm.png,0.4,resources/alien4_norm.png,0.6,TRUE,TRUE,2,0.968033342,purple,m,0.1496,alien3,TRUE,3,0.597968069,162,0,0.4,x,0.7933,0,287,287,287,1,0.3,0.7,0.4,0.6,FALSE,,,,,,,,,,,,,,,,,,,,,,,,,,,,,,,,,
GOSH_A1,2023-11-09_10h55.21.039,two_step_task_legacy,2022.2.4,Win32,59.54153022,2,learning,0,resources/alien1_norm.png,0.3,resources/alien2_norm.png,0.7,TRUE,TRUE,3,0.075797153,red,m,0.45,alien2,TRUE,2,0.015122955,163,1,0.7,m,0.4667,0,288,288,288,1,0.3,0.7,0.4,0.6,FALSE,,,,,,,,,,,,,,,,,,,,,,,,,,,,,,,,,
GOSH_A1,2023-11-09_10h55.21.039,two_step_task_legacy,2022.2.4,Win32,59.54153022,2,learning,0,resources/alien1_norm.png,0.3,resources/alien2_norm.png,0.7,TRUE,TRUE,3,0.565484584,red,m,0.2414,alien2,TRUE,2,0.415770528,164,1,0.7,m,0.5041,0,289,289,289,1,0.3,0.7,0.4,0.6,FALSE,,,,,,,,,,,,,,,,,,,,,,,,,,,,,,,,,
GOSH_A1,2023-11-09_10h55.21.039,two_step_task_legacy,2022.2.4,Win32,59.54153022,2,learning,0,resources/alien1_norm.png,0.3,resources/alien2_norm.png,0.7,TRUE,TRUE,3,0.578037669,red,m,0.0949,alien2,TRUE,2,0.171314576,165,1,0.7,m,0.4905,0,290,290,290,1,0.3,0.7,0.4,0.6,FALSE,,,,,,,,,,,,,,,,,,,,,,,,,,,,,,,,,
