participant,date,expName,psychopyVersion,OS,frameRate,payoff_list,phase,rare_transition,left_alien,left_probabilty,right_alien,right_probabilty,select_sp,show_alien,rocket_trans,rand_sp,planet,key_resp_exp.keys,key_resp_exp.rt,chosen_alien,select_alien,transmoney,rand_money,totalgold,trialgain,probs,key_resp_exp_alien.keys,key_resp_exp_alien.rt,loop_exp.thisRepN,loop_exp.thisTrialN,loop_exp.thisN,loop_exp.thisIndex,loop_exp.ran,p1,p2,p3,p4,flip_sides,static_probability_left,static_probability_right,key_resp_probe.keys,key_resp_probe.rt,accuracy,probe_loop.thisRepN,probe_loop.thisTrialN,probe_loop.thisN,probe_loop.thisIndex,probe_loop.ran,probe_la,probe_ra,key_resp.keys,key_resp.rt,slider.response,slider.rt,post_loop.thisRepN,post_loop.thisTrialN,post_loop.thisN,post_loop.thisIndex,post_loop.ran,text_up,pos_text_up,text_down,pos_img_left_up,left_up_img,right_up_img,left_down_img_1,left_down_img_2,right_down_img_1,right_down_img_2,size,show_slider
GOSH_A11,2023-11-10_10h50.38.031,two_step_task_legacy,2022.2.4,Win32,60.5620155,,,,,,,,,,,,,,,,,,,,,,,,,,,,,,,,,,,,,,,,,,,,,,,,,,,,,,,,,,,,,,,,,,
GOSH_A11,2023-11-10_10h50.38.031,two_step_task_legacy,2022.2.4,Win32,60.5620155,,,,,,,,,,,,,,,,,,,,,,,,,,,,,,,,,,,,,,,,,,,,,,,,,,,,,,,,,,,,,,,,,,
GOSH_A11,2023-11-10_10h50.38.031,two_step_task_legacy,2022.2.4,Win32,60.5620155,,,,,,,,,,,,,,,,,,,,,,,,,,,,,,,,,,,,,,,,,,,,,,,,,,,,,,,,,,,,,,,,,,
GOSH_A11,2023-11-10_10h50.38.031,two_step_task_legacy,2022.2.4,Win32,60.5620155,,,,,,,,,,,,,,,,,,,,,,,,,,,,,,,,,,,,,,,,,,,,,,,,,,,,,,,,,,,,,,,,,,
GOSH_A11,2023-11-10_10h50.38.031,two_step_task_legacy,2022.2.4,Win32,60.5620155,,,,,,,,,,,,,,,,,,,,,,,,,,,,,,,,,,,,,,,,,,,,,,,,,,,,,,,,,,,,,,,,,,
GOSH_A11,2023-11-10_10h50.38.031,two_step_task_legacy,2022.2.4,Win32,60.5620155,,,,,,,,,,,,,,,,,,,,,,,,,,,,,,,,,,,,,,,,,,,,,,,,,,,,,,,,,,,,,,,,,,
GOSH_A11,2023-11-10_10h50.38.031,two_step_task_legacy,2022.2.4,Win32,60.5620155,,,,,,,,,,,,,,,,,,,,,,,,,,,,,,,,,,,,,,,,,,,,,,,,,,,,,,,,,,,,,,,,,,
GOSH_A11,2023-11-10_10h50.38.031,two_step_task_legacy,2022.2.4,Win32,60.5620155,,,,,,,,,,,,,,,,,,,,,,,,,,,,,,,,,,,,,,,,,,,,,,,,,,,,,,,,,,,,,,,,,,
GOSH_A11,2023-11-10_10h50.38.031,two_step_task_legacy,2022.2.4,Win32,60.5620155,,,,,,,,,,,,,,,,,,,,,,,,,,,,,,,,,,,,,,,,,,,,,,,,,,,,,,,,,,,,,,,,,,
GOSH_A11,2023-11-10_10h50.38.031,two_step_task_legacy,2022.2.4,Win32,60.5620155,,,,,,,,,,,,,,,,,,,,,,,,,,,,,,,,,,,,,,,,,,,,,,,,,,,,,,,,,,,,,,,,,,
GOSH_A11,2023-11-10_10h50.38.031,two_step_task_legacy,2022.2.4,Win32,60.5620155,,,,,,,,,,,,,,,,,,,,,,,,,,,,,,,,,,,,,,,,,,,,,,,,,,,,,,,,,,,,,,,,,,
GOSH_A11,2023-11-10_10h50.38.031,two_step_task_legacy,2022.2.4,Win32,60.5620155,21,learning,0,resources/alien3_norm.png,0.684167385,resources/alien4_norm.png,0.574881385,TRUE,TRUE,2,0.053160747,purple,x,1.3058,alien3,TRUE,2,0.140177998,1,1,0.684167385,x,0.9699,0,0,0,0,1,0.601195094,0.412920416,0.684167385,0.574881385,FALSE,,,,,,,,,,,,,,,,,,,,,,,,,,,,,,,,,
GOSH_A11,2023-11-10_10h50.38.031,two_step_task_legacy,2022.2.4,Win32,60.5620155,21,learning,0,resources/alien4_norm.png,0.598570502,resources/alien3_norm.png,0.686024818,TRUE,TRUE,2,0.050583259,purple,x,0.4341,alien3,TRUE,3,0.826347111,1,0,0.686024818,m,0.7378,0,1,1,1,1,0.625745146,0.384635186,0.686024818,0.598570502,TRUE,,,,,,,,,,,,,,,,,,,,,,,,,,,,,,,,,
GOSH_A11,2023-11-10_10h50.38.031,two_step_task_legacy,2022.2.4,Win32,60.5620155,21,learning,1,resources/alien4_norm.png,0.638671366,resources/alien3_norm.png,0.644881976,TRUE,TRUE,2,0.916305209,purple,m,0.3147,alien3,TRUE,3,0.932750564,1,0,0.644881976,m,0.9037,0,2,2,2,1,0.607315968,0.369840214,0.644881976,0.638671366,TRUE,,,,,,,,,,,,,,,,,,,,,,,,,,,,,,,,,
GOSH_A11,2023-11-10_10h50.38.031,two_step_task_legacy,2022.2.4,Win32,60.5620155,21,learning,0,resources/alien2_norm.png,0.370949282,resources/alien1_norm.png,0.553970902,TRUE,TRUE,3,0.004435423,red,m,0.2389,alien1,TRUE,2,0.546572613,2,1,0.553970902,m,1.1755,0,3,3,3,1,0.553970902,0.370949282,0.634096222,0.581962699,TRUE,,,,,,,,,,,,,,,,,,,,,,,,,,,,,,,,,
GOSH_A11,2023-11-10_10h50.38.031,two_step_task_legacy,2022.2.4,Win32,60.5620155,21,learning,1,resources/alien4_norm.png,0.574748429,resources/alien3_norm.png,0.641581245,TRUE,TRUE,2,0.911933945,purple,m,0.3509,alien4,TRUE,2,0.074464732,3,1,0.574748429,x,0.8162,0,4,4,4,1,0.531032286,0.403833123,0.641581245,0.574748429,TRUE,,,,,,,,,,,,,,,,,,,,,,,,,,,,,,,,,
GOSH_A11,2023-11-10_10h50.38.031,two_step_task_legacy,2022.2.4,Win32,60.5620155,21,learning,0,resources/alien2_norm.png,0.413108418,resources/alien1_norm.png,0.567657882,TRUE,TRUE,3,0.664197959,red,m,0.3116,alien1,TRUE,2,0.464477874,4,1,0.567657882,m,1.2709,0,5,5,5,1,0.567657882,0.413108418,0.653289635,0.5733101,TRUE,,,,,,,,,,,,,,,,,,,,,,,,,,,,,,,,,
GOSH_A11,2023-11-10_10h50.38.031,two_step_task_legacy,2022.2.4,Win32,60.5620155,21,learning,0,resources/alien1_norm.png,0.583224272,resources/alien2_norm.png,0.425080565,TRUE,TRUE,3,0.065803265,red,m,0.6218,alien1,TRUE,3,0.977887346,4,0,0.583224272,x,0.6749,0,6,6,6,1,0.583224272,0.425080565,0.710266348,0.526958851,FALSE,,,,,,,,,,,,,,,,,,,,,,,,,,,,,,,,,
GOSH_A11,2023-11-10_10h50.38.031,two_step_task_legacy,2022.2.4,Win32,60.5620155,21,learning,0,resources/alien4_norm.png,0.480861246,resources/alien3_norm.png,0.713974974,TRUE,TRUE,2,0.412786426,purple,x,0.2833,alien3,TRUE,3,0.7549117,4,0,0.713974974,m,1.3955,0,7,7,7,1,0.611992163,0.442857993,0.713974974,0.480861246,TRUE,,,,,,,,,,,,,,,,,,,,,,,,,,,,,,,,,
GOSH_A11,2023-11-10_10h50.38.031,two_step_task_legacy,2022.2.4,Win32,60.5620155,21,learning,0,resources/alien4_norm.png,0.461218259,resources/alien3_norm.png,0.7109314,TRUE,TRUE,2,0.44952069,purple,x,0.5366,alien3,TRUE,2,0.262779467,5,1,0.7109314,m,0.4499,0,8,8,8,1,0.612740558,0.431833253,0.7109314,0.461218259,TRUE,,,,,,,,,,,,,,,,,,,,,,,,,,,,,,,,,
GOSH_A11,2023-11-10_10h50.38.031,two_step_task_legacy,2022.2.4,Win32,60.5620155,21,learning,0,resources/alien2_norm.png,0.441677248,resources/alien1_norm.png,0.608500544,TRUE,TRUE,3,0.216890816,red,m,0.1674,alien1,TRUE,3,0.821422178,5,0,0.608500544,m,0.5398,0,9,9,9,1,0.608500544,0.441677248,0.702346871,0.482120856,TRUE,,,,,,,,,,,,,,,,,,,,,,,,,,,,,,,,,
GOSH_A11,2023-11-10_10h50.38.031,two_step_task_legacy,2022.2.4,Win32,60.5620155,21,learning,1,resources/alien4_norm.png,0.532346574,resources/alien3_norm.png,0.67633549,TRUE,TRUE,2,0.771495953,purple,m,0.3527,alien3,TRUE,3,0.794400675,5,0,0.67633549,m,0.9376,0,10,10,10,1,0.576141425,0.482625454,0.67633549,0.532346574,TRUE,,,,,,,,,,,,,,,,,,,,,,,,,,,,,,,,,
GOSH_A11,2023-11-10_10h50.38.031,two_step_task_legacy,2022.2.4,Win32,60.5620155,21,learning,1,resources/alien4_norm.png,0.561189193,resources/alien3_norm.png,0.664063745,TRUE,TRUE,2,0.759861445,purple,m,0.2573,alien4,TRUE,3,0.745022859,5,0,0.561189193,x,0.79,0,11,11,11,1,0.568074544,0.493435168,0.664063745,0.561189193,TRUE,,,,,,,,,,,,,,,,,,,,,,,,,,,,,,,,,
GOSH_A11,2023-11-10_10h50.38.031,two_step_task_legacy,2022.2.4,Win32,60.5620155,21,learning,0,resources/alien1_norm.png,0.580926918,resources/alien2_norm.png,0.510599306,TRUE,TRUE,3,0.622676121,red,m,0.2313,alien1,TRUE,2,0.461761635,6,1,0.580926918,x,0.6096,0,12,12,12,1,0.580926918,0.510599306,0.672411387,0.548431613,FALSE,,,,,,,,,,,,,,,,,,,,,,,,,,,,,,,,,
GOSH_A11,2023-11-10_10h50.38.031,two_step_task_legacy,2022.2.4,Win32,60.5620155,21,learning,0,resources/alien3_norm.png,0.663587653,resources/alien4_norm.png,0.549136269,TRUE,TRUE,2,0.295445995,purple,x,0.2448,alien3,TRUE,2,0.266970572,7,1,0.663587653,x,1.3605,0,13,13,13,1,0.600410731,0.440226577,0.663587653,0.549136269,FALSE,,,,,,,,,,,,,,,,,,,,,,,,,,,,,,,,,
GOSH_A11,2023-11-10_10h50.38.031,two_step_task_legacy,2022.2.4,Win32,60.5620155,21,learning,0,resources/alien3_norm.png,0.666002255,resources/alien4_norm.png,0.524244528,TRUE,TRUE,2,0.170239704,purple,x,0.0381,alien3,TRUE,2,0.568707346,8,1,0.666002255,x,0.3938,0,14,14,14,1,0.611788063,0.418298082,0.666002255,0.524244528,FALSE,,,,,,,,,,,,,,,,,,,,,,,,,,,,,,,,,
GOSH_A11,2023-11-10_10h50.38.031,two_step_task_legacy,2022.2.4,Win32,60.5620155,21,learning,0,resources/alien2_norm.png,0.389234347,resources/alien1_norm.png,0.598923528,TRUE,TRUE,3,0.329946391,red,m,0.2902,alien1,TRUE,2,0.245997546,9,1,0.598923528,m,0.5015,0,15,15,15,1,0.598923528,0.389234347,0.677601938,0.531921129,TRUE,,,,,,,,,,,,,,,,,,,,,,,,,,,,,,,,,
GOSH_A11,2023-11-10_10h50.38.031,two_step_task_legacy,2022.2.4,Win32,60.5620155,21,learning,1,resources/alien2_norm.png,0.442467063,resources/alien1_norm.png,0.573752737,TRUE,TRUE,3,0.729548313,red,x,0.3781,alien1,TRUE,2,0.197563495,10,1,0.573752737,m,0.8589,0,16,16,16,1,0.573752737,0.442467063,0.658528817,0.532800124,TRUE,,,,,,,,,,,,,,,,,,,,,,,,,,,,,,,,,
GOSH_A11,2023-11-10_10h50.38.031,two_step_task_legacy,2022.2.4,Win32,60.5620155,21,learning,0,resources/alien4_norm.png,0.552412586,resources/alien3_norm.png,0.631175471,TRUE,TRUE,2,0.391289344,purple,x,0.4379,alien3,TRUE,2,0.219239525,11,1,0.631175471,m,0.8273,0,17,17,17,1,0.566603312,0.428427973,0.631175471,0.552412586,TRUE,,,,,,,,,,,,,,,,,,,,,,,,,,,,,,,,,
GOSH_A11,2023-11-10_10h50.38.031,two_step_task_legacy,2022.2.4,Win32,60.5620155,21,learning,0,resources/alien1_norm.png,0.582114013,resources/alien2_norm.png,0.425646271,TRUE,TRUE,3,0.351667645,red,m,0.3676,alien1,TRUE,2,0.274185913,12,1,0.582114013,x,0.5276,0,18,18,18,1,0.582114013,0.425646271,0.604740096,0.565590497,FALSE,,,,,,,,,,,,,,,,,,,,,,,,,,,,,,,,,
GOSH_A11,2023-11-10_10h50.38.031,two_step_task_legacy,2022.2.4,Win32,60.5620155,21,learning,0,resources/alien2_norm.png,0.373328893,resources/alien1_norm.png,0.561351389,TRUE,TRUE,3,0.475315976,red,m,0.2784,alien1,TRUE,3,0.678469011,12,0,0.561351389,m,1.0585,0,19,19,19,1,0.561351389,0.373328893,0.572334771,0.567031065,TRUE,,,,,,,,,,,,,,,,,,,,,,,,,,,,,,,,,
GOSH_A11,2023-11-10_10h50.38.031,two_step_task_legacy,2022.2.4,Win32,60.5620155,21,learning,0,resources/alien4_norm.png,0.54814434,resources/alien3_norm.png,0.559110428,TRUE,TRUE,2,0.476774654,purple,x,0.2649,alien3,TRUE,2,0.044607504,13,1,0.559110428,m,1.1372,0,20,20,20,1,0.600913787,0.418292814,0.559110428,0.54814434,TRUE,,,,,,,,,,,,,,,,,,,,,,,,,,,,,,,,,
GOSH_A11,2023-11-10_10h50.38.031,two_step_task_legacy,2022.2.4,Win32,60.5620155,21,learning,1,resources/alien1_norm.png,0.583272345,resources/alien2_norm.png,0.422500338,TRUE,TRUE,3,0.789499847,red,x,0.3378,alien1,TRUE,2,0.147326934,14,1,0.583272345,x,0.6668,0,21,21,21,1,0.583272345,0.422500338,0.568809314,0.566532625,FALSE,,,,,,,,,,,,,,,,,,,,,,,,,,,,,,,,,
GOSH_A11,2023-11-10_10h50.38.031,two_step_task_legacy,2022.2.4,Win32,60.5620155,21,learning,0,resources/alien2_norm.png,0.394003844,resources/alien1_norm.png,0.609961034,TRUE,TRUE,3,0.038824069,red,m,0.3575,alien1,TRUE,3,0.797669515,14,0,0.609961034,m,0.5055,0,22,22,22,1,0.609961034,0.394003844,0.55652811,0.561719482,TRUE,,,,,,,,,,,,,,,,,,,,,,,,,,,,,,,,,
GOSH_A11,2023-11-10_10h50.38.031,two_step_task_legacy,2022.2.4,Win32,60.5620155,21,learning,1,resources/alien1_norm.png,0.590272679,resources/alien2_norm.png,0.394651748,TRUE,TRUE,3,0.732669889,red,x,0.4892,alien1,TRUE,3,0.911000326,14,0,0.590272679,x,0.5244,0,23,23,23,1,0.590272679,0.394651748,0.555724238,0.544931665,FALSE,,,,,,,,,,,,,,,,,,,,,,,,,,,,,,,,,
GOSH_A11,2023-11-10_10h50.38.031,two_step_task_legacy,2022.2.4,Win32,60.5620155,21,learning,1,resources/alien4_norm.png,0.55069953,resources/alien3_norm.png,0.576639227,TRUE,TRUE,2,0.93973823,purple,m,0.2674,alien3,TRUE,2,0.363200101,15,1,0.576639227,m,0.8109,0,24,24,24,1,0.605617399,0.431176562,0.576639227,0.55069953,TRUE,,,,,,,,,,,,,,,,,,,,,,,,,,,,,,,,,
GOSH_A11,2023-11-10_10h50.38.031,two_step_task_legacy,2022.2.4,Win32,60.5620155,21,learning,1,resources/alien2_norm.png,0.420786543,resources/alien1_norm.png,0.613091185,TRUE,TRUE,3,0.948115512,red,x,0.1172,alien2,TRUE,2,0.080498663,16,1,0.420786543,x,0.6033,0,25,25,25,1,0.613091185,0.420786543,0.557257773,0.534624757,TRUE,,,,,,,,,,,,,,,,,,,,,,,,,,,,,,,,,
GOSH_A11,2023-11-10_10h50.38.031,two_step_task_legacy,2022.2.4,Win32,60.5620155,21,learning,0,resources/alien1_norm.png,0.595872609,resources/alien2_norm.png,0.450532133,TRUE,TRUE,3,0.605150758,red,m,0.2553,alien2,TRUE,2,0.159069258,17,1,0.450532133,m,0.4203,0,26,26,26,1,0.595872609,0.450532133,0.576094467,0.545850614,FALSE,,,,,,,,,,,,,,,,,,,,,,,,,,,,,,,,,
GOSH_A11,2023-11-10_10h50.38.031,two_step_task_legacy,2022.2.4,Win32,60.5620155,21,learning,1,resources/alien1_norm.png,0.643406653,resources/alien2_norm.png,0.477668773,TRUE,TRUE,3,0.807404219,red,x,0.4115,alien2,TRUE,3,0.516368912,17,0,0.477668773,m,0.7543,0,27,27,27,1,0.643406653,0.477668773,0.592199407,0.511001288,FALSE,,,,,,,,,,,,,,,,,,,,,,,,,,,,,,,,,
GOSH_A11,2023-11-10_10h50.38.031,two_step_task_legacy,2022.2.4,Win32,60.5620155,21,learning,0,resources/alien2_norm.png,0.482589761,resources/alien1_norm.png,0.627060866,TRUE,TRUE,3,0.272928364,red,m,0.0829,alien2,TRUE,3,0.921183487,17,0,0.482589761,x,0.5665,0,28,28,28,1,0.627060866,0.482589761,0.634639671,0.503306501,TRUE,,,,,,,,,,,,,,,,,,,,,,,,,,,,,,,,,
GOSH_A11,2023-11-10_10h50.38.031,two_step_task_legacy,2022.2.4,Win32,60.5620155,21,learning,0,resources/alien2_norm.png,0.473630358,resources/alien1_norm.png,0.659503493,TRUE,TRUE,3,0.650488977,red,m,0.0663,alien1,TRUE,2,0.370182046,18,1,0.659503493,m,0.5397,0,29,29,29,1,0.659503493,0.473630358,0.636367601,0.500905699,TRUE,,,,,,,,,,,,,,,,,,,,,,,,,,,,,,,,,
GOSH_A11,2023-11-10_10h50.38.031,two_step_task_legacy,2022.2.4,Win32,60.5620155,21,learning,0,resources/alien4_norm.png,0.501224844,resources/alien3_norm.png,0.637914928,TRUE,TRUE,2,0.176896433,purple,x,0.235,alien4,TRUE,3,0.713436099,18,0,0.501224844,x,0.7879,0,30,30,30,1,0.633289649,0.501315139,0.637914928,0.501224844,TRUE,,,,,,,,,,,,,,,,,,,,,,,,,,,,,,,,,
GOSH_A11,2023-11-10_10h50.38.031,two_step_task_legacy,2022.2.4,Win32,60.5620155,21,learning,1,resources/alien2_norm.png,0.486335384,resources/alien1_norm.png,0.601309191,TRUE,TRUE,3,0.738687891,red,x,0.3002,alien2,TRUE,2,0.439764339,19,1,0.486335384,x,0.7868,0,31,31,31,1,0.601309191,0.486335384,0.634843763,0.49511204,TRUE,,,,,,,,,,,,,,,,,,,,,,,,,,,,,,,,,
GOSH_A11,2023-11-10_10h50.38.031,two_step_task_legacy,2022.2.4,Win32,60.5620155,21,learning,0,resources/alien1_norm.png,0.601010443,resources/alien2_norm.png,0.467762774,TRUE,TRUE,3,0.010728669,red,m,0.3556,alien2,TRUE,3,0.964600863,19,0,0.467762774,m,1.112,0,32,32,32,1,0.601010443,0.467762774,0.625739977,0.492316248,FALSE,,,,,,,,,,,,,,,,,,,,,,,,,,,,,,,,,
GOSH_A11,2023-11-10_10h50.38.031,two_step_task_legacy,2022.2.4,Win32,60.5620155,21,learning,0,resources/alien4_norm.png,0.545653013,resources/alien3_norm.png,0.615828505,TRUE,TRUE,2,0.047327992,purple,x,0.2507,alien4,TRUE,2,0.521367609,20,1,0.545653013,x,1.3438,0,33,33,33,1,0.622204761,0.465440023,0.615828505,0.545653013,TRUE,,,,,,,,,,,,,,,,,,,,,,,,,,,,,,,,,
GOSH_A11,2023-11-10_10h50.38.031,two_step_task_legacy,2022.2.4,Win32,60.5620155,21,learning,0,resources/alien4_norm.png,0.495749277,resources/alien3_norm.png,0.59000377,TRUE,TRUE,2,0.095090695,purple,x,0.2382,alien4,TRUE,3,0.595589759,20,0,0.495749277,x,0.4044,0,34,34,34,1,0.627316779,0.493981228,0.59000377,0.495749277,TRUE,,,,,,,,,,,,,,,,,,,,,,,,,,,,,,,,,
GOSH_A11,2023-11-10_10h50.38.031,two_step_task_legacy,2022.2.4,Win32,60.5620155,21,learning,1,resources/alien4_norm.png,0.524611694,resources/alien3_norm.png,0.553937559,TRUE,TRUE,2,0.978190241,purple,m,0.2047,alien4,TRUE,2,0.16975895,21,1,0.524611694,x,0.6345,0,35,35,35,1,0.598288248,0.477218043,0.553937559,0.524611694,TRUE,,,,,,,,,,,,,,,,,,,,,,,,,,,,,,,,,
GOSH_A11,2023-11-10_10h50.38.031,two_step_task_legacy,2022.2.4,Win32,60.5620155,21,learning,1,resources/alien4_norm.png,0.543066073,resources/alien3_norm.png,0.56908871,TRUE,TRUE,2,0.72154205,purple,m,0.233,alien4,TRUE,2,0.516825449,22,1,0.543066073,x,0.6205,0,36,36,36,1,0.614262045,0.493000476,0.56908871,0.543066073,TRUE,,,,,,,,,,,,,,,,,,,,,,,,,,,,,,,,,
GOSH_A11,2023-11-10_10h50.38.031,two_step_task_legacy,2022.2.4,Win32,60.5620155,21,learning,0,resources/alien3_norm.png,0.558161717,resources/alien4_norm.png,0.50431812,TRUE,TRUE,2,0.288762386,purple,x,0.0051,alien4,TRUE,3,0.710262593,22,0,0.50431812,m,0.6434,0,37,37,37,1,0.604854621,0.477881014,0.558161717,0.50431812,FALSE,,,,,,,,,,,,,,,,,,,,,,,,,,,,,,,,,
GOSH_A11,2023-11-10_10h50.38.031,two_step_task_legacy,2022.2.4,Win32,60.5620155,21,learning,1,resources/alien3_norm.png,0.530772143,resources/alien4_norm.png,0.52797049,TRUE,TRUE,2,0.940942413,purple,m,0.2728,alien3,TRUE,2,0.164290599,23,1,0.530772143,x,0.9287,0,38,38,38,1,0.588574075,0.534531278,0.530772143,0.52797049,FALSE,,,,,,,,,,,,,,,,,,,,,,,,,,,,,,,,,
GOSH_A11,2023-11-10_10h50.38.031,two_step_task_legacy,2022.2.4,Win32,60.5620155,21,learning,0,resources/alien2_norm.png,0.531132777,resources/alien1_norm.png,0.595909038,TRUE,TRUE,3,0.136994359,red,m,0.2841,alien1,TRUE,2,0.161542311,24,1,0.595909038,m,1.284,0,39,39,39,1,0.595909038,0.531132777,0.540735318,0.557222525,TRUE,,,,,,,,,,,,,,,,,,,,,,,,,,,,,,,,,
GOSH_A11,2023-11-10_10h50.38.031,two_step_task_legacy,2022.2.4,Win32,60.5620155,21,learning,0,resources/alien4_norm.png,0.583638711,resources/alien3_norm.png,0.494666279,TRUE,TRUE,2,0.345543184,purple,x,0.2706,alien3,TRUE,2,0.294215468,25,1,0.494666279,m,1.6601,0,40,40,40,1,0.574771467,0.540223528,0.494666279,0.583638711,TRUE,,,,,,,,,,,,,,,,,,,,,,,,,,,,,,,,,
GOSH_A11,2023-11-10_10h50.38.031,two_step_task_legacy,2022.2.4,Win32,60.5620155,21,learning,1,resources/alien1_norm.png,0.584272001,resources/alien2_norm.png,0.559165838,TRUE,TRUE,3,0.882791394,red,x,0.2347,alien2,TRUE,2,0.534086839,26,1,0.559165838,m,1.2232,0,41,41,41,1,0.584272001,0.559165838,0.50627781,0.5945859,FALSE,,,,,,,,,,,,,,,,,,,,,,,,,,,,,,,,,
GOSH_A11,2023-11-10_10h50.38.031,two_step_task_legacy,2022.2.4,Win32,60.5620155,21,learning,0,resources/alien4_norm.png,0.640132819,resources/alien3_norm.png,0.516590823,TRUE,TRUE,2,0.344982408,purple,x,0.2793,alien4,TRUE,3,0.869039423,26,0,0.640132819,x,0.5386,0,42,42,42,1,0.630034319,0.617175123,0.516590823,0.640132819,TRUE,,,,,,,,,,,,,,,,,,,,,,,,,,,,,,,,,
GOSH_A11,2023-11-10_10h50.38.031,two_step_task_legacy,2022.2.4,Win32,60.5620155,21,learning,1,resources/alien3_norm.png,0.487932716,resources/alien4_norm.png,0.607580451,TRUE,TRUE,2,0.795581496,purple,m,0.2163,alien3,TRUE,3,0.886389132,26,0,0.487932716,x,0.6791,0,43,43,43,1,0.619075687,0.616003092,0.487932716,0.607580451,FALSE,,,,,,,,,,,,,,,,,,,,,,,,,,,,,,,,,
GOSH_A11,2023-11-10_10h50.38.031,two_step_task_legacy,2022.2.4,Win32,60.5620155,21,learning,0,resources/alien2_norm.png,0.582526972,resources/alien1_norm.png,0.605356515,TRUE,TRUE,3,0.086865693,red,m,0.0499,alien2,TRUE,2,0.563373255,27,1,0.582526972,x,0.8887,0,44,44,44,1,0.605356515,0.582526972,0.519583753,0.572653625,TRUE,,,,,,,,,,,,,,,,,,,,,,,,,,,,,,,,,
GOSH_A11,2023-11-10_10h50.38.031,two_step_task_legacy,2022.2.4,Win32,60.5620155,21,learning,0,resources/alien2_norm.png,0.577200294,resources/alien1_norm.png,0.557081221,TRUE,TRUE,3,0.562419896,red,m,0.2539,alien2,TRUE,3,0.799079397,27,0,0.577200294,x,0.7687,0,45,45,45,1,0.557081221,0.577200294,0.511061951,0.574858948,TRUE,,,,,,,,,,,,,,,,,,,,,,,,,,,,,,,,,
GOSH_A11,2023-11-10_10h50.38.031,two_step_task_legacy,2022.2.4,Win32,60.5620155,21,learning,1,resources/alien2_norm.png,0.598845262,resources/alien1_norm.png,0.555291304,TRUE,TRUE,3,0.843761159,red,x,0.1864,alien1,TRUE,3,0.809646947,27,0,0.555291304,m,0.3831,0,46,46,46,1,0.555291304,0.598845262,0.532871987,0.595061916,TRUE,,,,,,,,,,,,,,,,,,,,,,,,,,,,,,,,,
GOSH_A11,2023-11-10_10h50.38.031,two_step_task_legacy,2022.2.4,Win32,60.5620155,21,learning,1,resources/alien1_norm.png,0.578601924,resources/alien2_norm.png,0.598532069,TRUE,TRUE,3,0.893238062,red,x,0.261,alien2,TRUE,2,0.018755339,28,1,0.598532069,m,1.0379,0,47,47,47,1,0.578601924,0.598532069,0.529726075,0.585828111,FALSE,,,,,,,,,,,,,,,,,,,,,,,,,,,,,,,,,
GOSH_A11,2023-11-10_10h50.38.031,two_step_task_legacy,2022.2.4,Win32,60.5620155,21,learning,0,resources/alien2_norm.png,0.586538679,resources/alien1_norm.png,0.542249819,TRUE,TRUE,3,0.656485353,red,m,0.2843,alien2,TRUE,3,0.974889557,28,0,0.586538679,x,1.2041,0,48,48,48,1,0.542249819,0.586538679,0.558730333,0.573653694,TRUE,,,,,,,,,,,,,,,,,,,,,,,,,,,,,,,,,
GOSH_A11,2023-11-10_10h50.38.031,two_step_task_legacy,2022.2.4,Win32,60.5620155,21,learning,0,resources/alien1_norm.png,0.519538965,resources/alien2_norm.png,0.584343304,TRUE,TRUE,3,0.215071011,red,m,0.4604,alien1,TRUE,2,0.505664267,29,1,0.519538965,x,0.7955,0,49,49,49,1,0.519538965,0.584343304,0.622833908,0.600621292,FALSE,,,,,,,,,,,,,,,,,,,,,,,,,,,,,,,,,
GOSH_A11,2023-11-10_10h50.38.031,two_step_task_legacy,2022.2.4,Win32,60.5620155,21,learning,0,resources/alien3_norm.png,0.620348506,resources/alien4_norm.png,0.607356483,TRUE,TRUE,2,0.170363023,purple,x,0.2506,alien4,TRUE,2,0.578363925,30,1,0.607356483,m,0.6493,0,50,50,50,1,0.554572557,0.581709677,0.620348506,0.607356483,FALSE,,,,,,,,,,,,,,,,,,,,,,,,,,,,,,,,,
GOSH_A11,2023-11-10_10h50.38.031,two_step_task_legacy,2022.2.4,Win32,60.5620155,21,learning,0,resources/alien4_norm.png,0.607009894,resources/alien3_norm.png,0.6031703,TRUE,TRUE,2,0.333519211,purple,x,0.2323,alien4,TRUE,3,0.874100103,30,0,0.607009894,x,0.6208,0,51,51,51,1,0.547889004,0.612718726,0.6031703,0.607009894,TRUE,,,,,,,,,,,,,,,,,,,,,,,,,,,,,,,,,
GOSH_A11,2023-11-10_10h50.38.031,two_step_task_legacy,2022.2.4,Win32,60.5620155,21,learning,0,resources/alien1_norm.png,0.544060582,resources/alien2_norm.png,0.595407189,TRUE,TRUE,3,0.185647207,red,m,0.1929,alien1,TRUE,3,0.699096115,30,0,0.544060582,x,1.3582,0,52,52,52,1,0.544060582,0.595407189,0.557769273,0.588840226,FALSE,,,,,,,,,,,,,,,,,,,,,,,,,,,,,,,,,
GOSH_A11,2023-11-10_10h50.38.031,two_step_task_legacy,2022.2.4,Win32,60.5620155,21,learning,0,resources/alien4_norm.png,0.626166645,resources/alien3_norm.png,0.542082465,TRUE,TRUE,2,0.217655857,purple,x,0.3342,alien4,TRUE,2,0.232266634,31,1,0.626166645,x,1.0501,0,53,53,53,1,0.545266218,0.593072845,0.542082465,0.626166645,TRUE,,,,,,,,,,,,,,,,,,,,,,,,,,,,,,,,,
GOSH_A11,2023-11-10_10h50.38.031,two_step_task_legacy,2022.2.4,Win32,60.5620155,21,learning,0,resources/alien2_norm.png,0.617187035,resources/alien1_norm.png,0.533636761,TRUE,TRUE,3,0.130580447,red,m,0.2833,alien1,TRUE,3,0.920331233,31,0,0.533636761,m,0.425,0,54,54,54,1,0.533636761,0.617187035,0.542691053,0.641639284,TRUE,,,,,,,,,,,,,,,,,,,,,,,,,,,,,,,,,
GOSH_A11,2023-11-10_10h50.38.031,two_step_task_legacy,2022.2.4,Win32,60.5620155,21,learning,0,resources/alien1_norm.png,0.53071874,resources/alien2_norm.png,0.642883939,TRUE,TRUE,3,0.256808823,red,m,0.2166,alien2,TRUE,2,0.138790552,32,1,0.642883939,m,0.5615,0,55,55,55,1,0.53071874,0.642883939,0.540688793,0.613630346,FALSE,,,,,,,,,,,,,,,,,,,,,,,,,,,,,,,,,
GOSH_A11,2023-11-10_10h50.38.031,two_step_task_legacy,2022.2.4,Win32,60.5620155,21,learning,0,resources/alien4_norm.png,0.604506511,resources/alien3_norm.png,0.506133513,TRUE,TRUE,2,0.140926155,purple,x,0.0399,alien4,TRUE,3,0.846394762,32,0,0.604506511,x,0.4787,0,56,56,56,1,0.508540082,0.642374716,0.506133513,0.604506511,TRUE,,,,,,,,,,,,,,,,,,,,,,,,,,,,,,,,,
GOSH_A11,2023-11-10_10h50.38.031,two_step_task_legacy,2022.2.4,Win32,60.5620155,21,learning,0,resources/alien3_norm.png,0.531679577,resources/alien4_norm.png,0.600516429,TRUE,TRUE,2,0.241172165,purple,x,0.4228,alien3,TRUE,2,0.106302022,33,1,0.531679577,x,0.9835,0,57,57,57,1,0.519337081,0.646260215,0.531679577,0.600516429,FALSE,,,,,,,,,,,,,,,,,,,,,,,,,,,,,,,,,
GOSH_A11,2023-11-10_10h50.38.031,two_step_task_legacy,2022.2.4,Win32,60.5620155,21,learning,0,resources/alien2_norm.png,0.644987866,resources/alien1_norm.png,0.515119314,TRUE,TRUE,3,0.405296952,red,m,0.2359,alien2,TRUE,3,0.691816426,33,0,0.644987866,x,0.9012,0,58,58,58,1,0.515119314,0.644987866,0.525737079,0.596579648,TRUE,,,,,,,,,,,,,,,,,,,,,,,,,,,,,,,,,
GOSH_A11,2023-11-10_10h50.38.031,two_step_task_legacy,2022.2.4,Win32,60.5620155,21,learning,0,resources/alien1_norm.png,0.482207563,resources/alien2_norm.png,0.621644772,TRUE,TRUE,3,0.431075301,red,m,0.0874,alien2,TRUE,3,0.724884677,33,0,0.621644772,m,0.6408,0,59,59,59,1,0.482207563,0.621644772,0.535111942,0.600256718,FALSE,,,,,,,,,,,,,,,,,,,,,,,,,,,,,,,,,
GOSH_A11,2023-11-10_10h50.38.031,two_step_task_legacy,2022.2.4,Win32,60.5620155,21,learning,1,resources/alien1_norm.png,0.450055305,resources/alien2_norm.png,0.66669687,TRUE,TRUE,3,0.795635833,red,x,0.2265,alien1,TRUE,3,0.921493125,33,0,0.450055305,x,0.7842,0,60,60,60,1,0.450055305,0.66669687,0.514338736,0.607153047,FALSE,,,,,,,,,,,,,,,,,,,,,,,,,,,,,,,,,
GOSH_A11,2023-11-10_10h50.38.031,two_step_task_legacy,2022.2.4,Win32,60.5620155,21,learning,1,resources/alien2_norm.png,0.658101899,resources/alien1_norm.png,0.419368289,TRUE,TRUE,3,0.850298044,red,x,0.2165,alien2,TRUE,3,0.735135264,33,0,0.658101899,x,0.5011,0,61,61,61,1,0.419368289,0.658101899,0.471642866,0.583823796,TRUE,,,,,,,,,,,,,,,,,,,,,,,,,,,,,,,,,
GOSH_A11,2023-11-10_10h50.38.031,two_step_task_legacy,2022.2.4,Win32,60.5620155,21,learning,0,resources/alien4_norm.png,0.577391808,resources/alien3_norm.png,0.495383864,TRUE,TRUE,2,0.553183187,purple,x,0.1206,alien3,TRUE,2,0.0029675,34,1,0.495383864,m,0.7738,0,62,62,62,1,0.476081837,0.679582459,0.495383864,0.577391808,TRUE,,,,,,,,,,,,,,,,,,,,,,,,,,,,,,,,,
GOSH_A11,2023-11-10_10h50.38.031,two_step_task_legacy,2022.2.4,Win32,60.5620155,21,learning,1,resources/alien4_norm.png,0.584382346,resources/alien3_norm.png,0.492482455,TRUE,TRUE,2,0.812140257,purple,m,0.3831,alien3,TRUE,2,0.352993384,35,1,0.492482455,m,0.596,0,63,63,63,1,0.46564135,0.656019472,0.492482455,0.584382346,TRUE,,,,,,,,,,,,,,,,,,,,,,,,,,,,,,,,,
GOSH_A11,2023-11-10_10h50.38.031,two_step_task_legacy,2022.2.4,Win32,60.5620155,21,learning,0,resources/alien2_norm.png,0.650679566,resources/alien1_norm.png,0.477315304,TRUE,TRUE,3,0.120754378,red,m,0.3571,alien1,TRUE,2,0.181682517,36,1,0.477315304,m,0.5709,0,64,64,64,1,0.477315304,0.650679566,0.473090091,0.579903099,TRUE,,,,,,,,,,,,,,,,,,,,,,,,,,,,,,,,,
GOSH_A11,2023-11-10_10h50.38.031,two_step_task_legacy,2022.2.4,Win32,60.5620155,21,learning,0,resources/alien3_norm.png,0.46600528,resources/alien4_norm.png,0.57197952,TRUE,TRUE,2,0.629293867,purple,x,0.6043,alien3,TRUE,2,0.081179453,37,1,0.46600528,x,0.9617,0,65,65,65,1,0.46552265,0.62334515,0.46600528,0.57197952,FALSE,,,,,,,,,,,,,,,,,,,,,,,,,,,,,,,,,
GOSH_A11,2023-11-10_10h50.38.031,two_step_task_legacy,2022.2.4,Win32,60.5620155,21,learning,0,resources/alien3_norm.png,0.423812817,resources/alien4_norm.png,0.610089415,TRUE,TRUE,2,0.440263482,purple,x,0.334,alien3,TRUE,2,0.378749373,38,1,0.423812817,x,0.5247,0,66,66,66,1,0.475612123,0.625851031,0.423812817,0.610089415,FALSE,,,,,,,,,,,,,,,,,,,,,,,,,,,,,,,,,
GOSH_A11,2023-11-10_10h50.38.031,two_step_task_legacy,2022.2.4,Win32,60.5620155,21,learning,1,resources/alien2_norm.png,0.591916813,resources/alien1_norm.png,0.488225722,TRUE,TRUE,3,0.786175114,red,x,0.4273,alien1,TRUE,2,0.308505524,39,1,0.488225722,m,0.9034,0,67,67,67,1,0.488225722,0.591916813,0.389156213,0.604504253,TRUE,,,,,,,,,,,,,,,,,,,,,,,,,,,,,,,,,
GOSH_A11,2023-11-10_10h50.38.031,two_step_task_legacy,2022.2.4,Win32,60.5620155,21,learning,0,resources/alien2_norm.png,0.566650103,resources/alien1_norm.png,0.447473516,TRUE,TRUE,3,0.027414978,red,m,0.2396,alien1,TRUE,3,0.849920578,39,0,0.447473516,m,0.5731,0,68,68,68,1,0.447473516,0.566650103,0.426911286,0.600400303,TRUE,,,,,,,,,,,,,,,,,,,,,,,,,,,,,,,,,
GOSH_A11,2023-11-10_10h50.38.031,two_step_task_legacy,2022.2.4,Win32,60.5620155,21,learning,0,resources/alien1_norm.png,0.446833039,resources/alien2_norm.png,0.601017704,TRUE,TRUE,3,0.005920276,red,m,0.1235,alien2,TRUE,2,0.111292811,40,1,0.601017704,m,0.6965,0,69,69,69,1,0.446833039,0.601017704,0.419171163,0.645762646,FALSE,,,,,,,,,,,,,,,,,,,,,,,,,,,,,,,,,
GOSH_A11,2023-11-10_10h50.38.031,two_step_task_legacy,2022.2.4,Win32,60.5620155,21,learning,0,resources/alien1_norm.png,0.46229688,resources/alien2_norm.png,0.577212844,TRUE,TRUE,3,0.642381516,red,m,0.2289,alien2,TRUE,3,0.880567711,40,0,0.577212844,m,0.4665,0,70,70,70,1,0.46229688,0.577212844,0.381881382,0.679798258,FALSE,,,,,,,,,,,,,,,,,,,,,,,,,,,,,,,,,
GOSH_A11,2023-11-10_10h50.38.031,two_step_task_legacy,2022.2.4,Win32,60.5620155,21,learning,1,resources/alien3_norm.png,0.372866063,resources/alien4_norm.png,0.744246282,TRUE,TRUE,2,0.957902037,purple,m,0.2178,alien4,TRUE,2,0.496275594,41,1,0.744246282,m,0.9011,0,71,71,71,1,0.447857256,0.585168326,0.372866063,0.744246282,FALSE,,,,,,,,,,,,,,,,,,,,,,,,,,,,,,,,,
GOSH_A11,2023-11-10_10h50.38.031,two_step_task_legacy,2022.2.4,Win32,60.5620155,21,learning,1,resources/alien1_norm.png,0.469156344,resources/alien2_norm.png,0.590253845,TRUE,TRUE,3,0.938418445,red,x,0.2931,alien2,TRUE,2,0.270075296,42,1,0.590253845,m,0.5763,0,72,72,72,1,0.469156344,0.590253845,0.365658811,0.738925901,FALSE,,,,,,,,,,,,,,,,,,,,,,,,,,,,,,,,,
GOSH_A11,2023-11-10_10h50.38.031,two_step_task_legacy,2022.2.4,Win32,60.5620155,21,learning,1,resources/alien1_norm.png,0.524386296,resources/alien2_norm.png,0.606410566,TRUE,TRUE,3,0.792540729,red,x,0.2263,alien2,TRUE,2,0.34643219,43,1,0.606410566,m,0.384,0,73,73,73,1,0.524386296,0.606410566,0.368495441,0.745967699,FALSE,,,,,,,,,,,,,,,,,,,,,,,,,,,,,,,,,
GOSH_A11,2023-11-10_10h50.38.031,two_step_task_legacy,2022.2.4,Win32,60.5620155,21,learning,1,resources/alien3_norm.png,0.382592524,resources/alien4_norm.png,0.747056302,TRUE,TRUE,2,0.957347322,purple,m,0.1112,alien3,TRUE,3,0.789196897,43,0,0.382592524,x,0.9079,0,74,74,74,1,0.546195851,0.610187899,0.382592524,0.747056302,FALSE,,,,,,,,,,,,,,,,,,,,,,,,,,,,,,,,,
GOSH_A11,2023-11-10_10h50.38.031,two_step_task_legacy,2022.2.4,Win32,60.5620155,21,learning,0,resources/alien1_norm.png,0.516674318,resources/alien2_norm.png,0.630410906,TRUE,TRUE,3,0.318404368,red,m,0.2496,alien2,TRUE,2,0.126199929,44,1,0.630410906,m,1.1066,0,75,75,75,1,0.516674318,0.630410906,0.365808589,0.727966599,FALSE,,,,,,,,,,,,,,,,,,,,,,,,,,,,,,,,,
GOSH_A11,2023-11-10_10h50.38.031,two_step_task_legacy,2022.2.4,Win32,60.5620155,21,learning,0,resources/alien2_norm.png,0.600336462,resources/alien1_norm.png,0.513333865,TRUE,TRUE,3,0.612875691,red,m,0.2382,alien1,TRUE,3,0.619348303,44,0,0.513333865,m,0.3504,0,76,76,76,1,0.513333865,0.600336462,0.376049182,0.747496672,TRUE,,,,,,,,,,,,,,,,,,,,,,,,,,,,,,,,,
GOSH_A11,2023-11-10_10h50.38.031,two_step_task_legacy,2022.2.4,Win32,60.5620155,21,learning,0,resources/alien3_norm.png,0.366792972,resources/alien4_norm.png,0.743468027,TRUE,TRUE,2,0.229906943,purple,x,0.0005,alien4,TRUE,2,0.396374912,45,1,0.743468027,m,1.0395,0,77,77,77,1,0.533414093,0.616695744,0.366792972,0.743468027,FALSE,,,,,,,,,,,,,,,,,,,,,,,,,,,,,,,,,
GOSH_A11,2023-11-10_10h50.38.031,two_step_task_legacy,2022.2.4,Win32,60.5620155,21,learning,1,resources/alien3_norm.png,0.342893528,resources/alien4_norm.png,0.729281693,TRUE,TRUE,2,0.737669812,purple,m,1.6539,alien4,TRUE,3,0.910778784,45,0,0.729281693,m,0.9179,0,78,78,78,1,0.522426186,0.626472856,0.342893528,0.729281693,FALSE,,,,,,,,,,,,,,,,,,,,,,,,,,,,,,,,,
GOSH_A11,2023-11-10_10h50.38.031,two_step_task_legacy,2022.2.4,Win32,60.5620155,21,learning,1,resources/alien4_norm.png,0.732241262,resources/alien3_norm.png,0.328275201,TRUE,TRUE,2,0.967806534,purple,m,0.7113,alien4,TRUE,2,0.374374897,46,1,0.732241262,x,1.8789,0,79,79,79,1,0.537512346,0.612363775,0.328275201,0.732241262,TRUE,,,,,,,,,,,,,,,,,,,,,,,,,,,,,,,,,
GOSH_A11,2023-11-10_10h50.38.031,two_step_task_legacy,2022.2.4,Win32,60.5620155,21,learning,1,resources/alien3_norm.png,0.339910551,resources/alien4_norm.png,0.703847115,TRUE,TRUE,2,0.752145816,purple,m,0.7963,alien4,TRUE,2,0.331721758,47,1,0.703847115,m,0.7956,0,80,80,80,1,0.564643748,0.646040762,0.339910551,0.703847115,FALSE,,,,,,,,,,,,,,,,,,,,,,,,,,,,,,,,,
GOSH_A11,2023-11-10_10h50.38.031,two_step_task_legacy,2022.2.4,Win32,60.5620155,21,learning,1,resources/alien1_norm.png,0.574339547,resources/alien2_norm.png,0.667820554,TRUE,TRUE,3,0.923259076,red,x,0.5167,alien1,TRUE,2,0.019747822,48,1,0.574339547,x,0.4172,0,81,81,81,1,0.574339547,0.667820554,0.355880374,0.713459204,FALSE,,,,,,,,,,,,,,,,,,,,,,,,,,,,,,,,,
GOSH_A11,2023-11-10_10h50.38.031,two_step_task_legacy,2022.2.4,Win32,60.5620155,21,learning,0,resources/alien4_norm.png,0.723108132,resources/alien3_norm.png,0.383992384,TRUE,TRUE,2,0.619361456,purple,x,0.406,alien3,TRUE,3,0.600230218,48,0,0.383992384,m,0.9418,0,82,82,82,1,0.55697673,0.698602971,0.383992384,0.723108132,TRUE,,,,,,,,,,,,,,,,,,,,,,,,,,,,,,,,,
GOSH_A11,2023-11-10_10h50.38.031,two_step_task_legacy,2022.2.4,Win32,60.5620155,21,learning,0,resources/alien4_norm.png,0.74849031,resources/alien3_norm.png,0.388691416,TRUE,TRUE,2,0.66090723,purple,x,0.7603,alien4,TRUE,2,0.247836955,49,1,0.74849031,x,1.4756,0,83,83,83,1,0.520995768,0.688535499,0.388691416,0.74849031,TRUE,,,,,,,,,,,,,,,,,,,,,,,,,,,,,,,,,
GOSH_A11,2023-11-10_10h50.38.031,two_step_task_legacy,2022.2.4,Win32,60.5620155,21,learning,0,resources/alien2_norm.png,0.710364652,resources/alien1_norm.png,0.560357955,TRUE,TRUE,3,0.375667806,red,m,0.4256,alien1,TRUE,3,0.933278763,49,0,0.560357955,m,0.5325,0,84,84,84,1,0.560357955,0.710364652,0.394471814,0.708470458,TRUE,,,,,,,,,,,,,,,,,,,,,,,,,,,,,,,,,
GOSH_A11,2023-11-10_10h50.38.031,two_step_task_legacy,2022.2.4,Win32,60.5620155,21,learning,0,resources/alien2_norm.png,0.694563603,resources/alien1_norm.png,0.642492048,TRUE,TRUE,3,0.047024311,red,m,0.6939,alien2,TRUE,2,0.57361608,50,1,0.694563603,x,1.1221,0,85,85,85,1,0.642492048,0.694563603,0.366165455,0.701290951,TRUE,,,,,,,,,,,,,,,,,,,,,,,,,,,,,,,,,
GOSH_A11,2023-11-10_10h50.38.031,two_step_task_legacy,2022.2.4,Win32,60.5620155,21,learning,0,resources/alien4_norm.png,0.68653895,resources/alien3_norm.png,0.339851899,TRUE,TRUE,2,0.425015085,purple,x,0.399,alien3,TRUE,3,0.541216309,50,0,0.339851899,m,1.0098,0,86,86,86,1,0.659827268,0.693119638,0.339851899,0.68653895,TRUE,,,,,,,,,,,,,,,,,,,,,,,,,,,,,,,,,
GOSH_A11,2023-11-10_10h50.38.031,two_step_task_legacy,2022.2.4,Win32,60.5620155,21,learning,0,resources/alien2_norm.png,0.693358738,resources/alien1_norm.png,0.662335746,TRUE,TRUE,3,0.668463028,red,m,0.7714,alien1,TRUE,3,0.910657261,50,0,0.662335746,m,0.4525,0,87,87,87,1,0.662335746,0.693358738,0.344034175,0.714890726,TRUE,,,,,,,,,,,,,,,,,,,,,,,,,,,,,,,,,
GOSH_A11,2023-11-10_10h50.38.031,two_step_task_legacy,2022.2.4,Win32,60.5620155,21,learning,1,resources/alien1_norm.png,0.654953403,resources/alien2_norm.png,0.711283868,TRUE,TRUE,3,0.990012735,red,x,1.0838,alien2,TRUE,3,0.850141144,50,0,0.711283868,m,0.6426,0,88,88,88,1,0.654953403,0.711283868,0.317764846,0.686498284,FALSE,,,,,,,,,,,,,,,,,,,,,,,,,,,,,,,,,
GOSH_A11,2023-11-10_10h50.38.031,two_step_task_legacy,2022.2.4,Win32,60.5620155,21,learning,0,resources/alien4_norm.png,0.679595828,resources/alien3_norm.png,0.351001491,TRUE,TRUE,2,0.628834786,purple,x,0.2566,alien4,TRUE,3,0.877739382,50,0,0.679595828,x,0.4434,0,89,89,89,1,0.616516022,0.696475853,0.351001491,0.679595828,TRUE,,,,,,,,,,,,,,,,,,,,,,,,,,,,,,,,,
GOSH_A11,2023-11-10_10h50.38.031,two_step_task_legacy,2022.2.4,Win32,60.5620155,21,learning,0,resources/alien3_norm.png,0.333950803,resources/alien4_norm.png,0.65457047,TRUE,TRUE,2,0.569940545,purple,x,0.2727,alien3,TRUE,2,0.033177313,51,1,0.333950803,x,0.8843,0,90,90,90,1,0.617393134,0.712975203,0.333950803,0.65457047,FALSE,,,,,,,,,,,,,,,,,,,,,,,,,,,,,,,,,
GOSH_A11,2023-11-10_10h50.38.031,two_step_task_legacy,2022.2.4,Win32,60.5620155,21,learning,1,resources/alien1_norm.png,0.605248488,resources/alien2_norm.png,0.727979256,TRUE,TRUE,3,0.961528115,red,x,0.4176,alien1,TRUE,2,0.405782414,52,1,0.605248488,x,0.9372,0,91,91,91,1,0.605248488,0.727979256,0.333164568,0.68681226,FALSE,,,,,,,,,,,,,,,,,,,,,,,,,,,,,,,,,
GOSH_A11,2023-11-10_10h50.38.031,two_step_task_legacy,2022.2.4,Win32,60.5620155,21,learning,1,resources/alien2_norm.png,0.710049944,resources/alien1_norm.png,0.597920866,TRUE,TRUE,3,0.791969223,red,x,0.4192,alien1,TRUE,2,0.059009389,53,1,0.597920866,m,0.7787,0,92,92,92,1,0.597920866,0.710049944,0.335050717,0.695375305,TRUE,,,,,,,,,,,,,,,,,,,,,,,,,,,,,,,,,
GOSH_A11,2023-11-10_10h50.38.031,two_step_task_legacy,2022.2.4,Win32,60.5620155,21,learning,0,resources/alien2_norm.png,0.695892733,resources/alien1_norm.png,0.570087701,TRUE,TRUE,3,0.10816346,red,m,0.2849,alien1,TRUE,3,0.782148464,53,0,0.570087701,m,0.656,0,93,93,93,1,0.570087701,0.695892733,0.361676132,0.705704451,TRUE,,,,,,,,,,,,,,,,,,,,,,,,,,,,,,,,,
GOSH_A11,2023-11-10_10h50.38.031,two_step_task_legacy,2022.2.4,Win32,60.5620155,21,learning,1,resources/alien3_norm.png,0.335318237,resources/alien4_norm.png,0.711789496,TRUE,TRUE,2,0.711731362,purple,m,0.1893,alien3,TRUE,2,0.23806134,54,1,0.335318237,x,1.081,0,94,94,94,1,0.529720036,0.708120691,0.335318237,0.711789496,FALSE,,,,,,,,,,,,,,,,,,,,,,,,,,,,,,,,,
GOSH_A11,2023-11-10_10h50.38.031,two_step_task_legacy,2022.2.4,Win32,60.5620155,21,learning,1,resources/alien4_norm.png,0.682412233,resources/alien3_norm.png,0.398221116,TRUE,TRUE,2,0.920436308,purple,m,0.2227,alien3,TRUE,3,0.788892481,54,0,0.398221116,m,0.9399,0,95,95,95,1,0.47635657,0.721500672,0.398221116,0.682412233,TRUE,,,,,,,,,,,,,,,,,,,,,,,,,,,,,,,,,
GOSH_A11,2023-11-10_10h50.38.031,two_step_task_legacy,2022.2.4,Win32,60.5620155,21,learning,0,resources/alien1_norm.png,0.466179965,resources/alien2_norm.png,0.715414355,TRUE,TRUE,3,0.429345937,red,m,0.1145,alien2,TRUE,2,0.279732214,55,1,0.715414355,m,0.867,0,96,96,96,1,0.466179965,0.715414355,0.401364405,0.649304922,FALSE,,,,,,,,,,,,,,,,,,,,,,,,,,,,,,,,,
GOSH_A11,2023-11-10_10h50.38.031,two_step_task_legacy,2022.2.4,Win32,60.5620155,21,learning,1,resources/alien4_norm.png,0.645948713,resources/alien3_norm.png,0.396988401,TRUE,TRUE,2,0.784548865,purple,m,0.1242,alien4,TRUE,2,0.634395501,56,1,0.645948713,x,0.9878,0,97,97,97,1,0.467126539,0.723595882,0.396988401,0.645948713,TRUE,,,,,,,,,,,,,,,,,,,,,,,,,,,,,,,,,
GOSH_A11,2023-11-10_10h50.38.031,two_step_task_legacy,2022.2.4,Win32,60.5620155,21,learning,0,resources/alien2_norm.png,0.696269276,resources/alien1_norm.png,0.439790307,TRUE,TRUE,3,0.259560008,red,m,0.233,alien2,TRUE,2,0.0380659,57,1,0.696269276,x,0.9374,0,98,98,98,1,0.439790307,0.696269276,0.433219326,0.668586832,TRUE,,,,,,,,,,,,,,,,,,,,,,,,,,,,,,,,,
GOSH_A11,2023-11-10_10h50.38.031,two_step_task_legacy,2022.2.4,Win32,60.5620155,21,learning,1,resources/alien4_norm.png,0.680060197,resources/alien3_norm.png,0.442086132,TRUE,TRUE,2,0.924169261,purple,m,0.229,alien4,TRUE,2,0.427451197,58,1,0.680060197,x,0.6326,0,99,99,99,1,0.464800643,0.659724849,0.442086132,0.680060197,TRUE,,,,,,,,,,,,,,,,,,,,,,,,,,,,,,,,,
GOSH_A11,2023-11-10_10h50.38.031,two_step_task_legacy,2022.2.4,Win32,60.5620155,21,learning,1,resources/alien3_norm.png,0.432642845,resources/alien4_norm.png,0.688821162,TRUE,TRUE,2,0.827088037,purple,m,0.1499,alien4,TRUE,3,0.939545191,58,0,0.688821162,m,1.2291,0,100,100,100,1,0.453655036,0.648409952,0.432642845,0.688821162,FALSE,,,,,,,,,,,,,,,,,,,,,,,,,,,,,,,,,
GOSH_A11,2023-11-10_10h50.38.031,two_step_task_legacy,2022.2.4,Win32,60.5620155,21,learning,0,resources/alien1_norm.png,0.480154937,resources/alien2_norm.png,0.66099901,TRUE,TRUE,3,0.449870624,red,m,0.278,alien2,TRUE,2,0.577710875,59,1,0.66099901,m,1.1894,0,101,101,101,1,0.480154937,0.66099901,0.452743872,0.655063209,FALSE,,,,,,,,,,,,,,,,,,,,,,,,,,,,,,,,,
GOSH_A11,2023-11-10_10h50.38.031,two_step_task_legacy,2022.2.4,Win32,60.5620155,21,learning,0,resources/alien2_norm.png,0.686802619,resources/alien1_norm.png,0.435064291,TRUE,TRUE,3,0.363025276,red,m,0.3394,alien2,TRUE,2,0.306031645,60,1,0.686802619,x,0.8173,0,102,102,102,1,0.435064291,0.686802619,0.456887081,0.675596743,TRUE,,,,,,,,,,,,,,,,,,,,,,,,,,,,,,,,,
GOSH_A11,2023-11-10_10h50.38.031,two_step_task_legacy,2022.2.4,Win32,60.5620155,21,learning,0,resources/alien3_norm.png,0.437649181,resources/alien4_norm.png,0.728894923,TRUE,TRUE,2,0.618031567,purple,x,0.35,alien3,TRUE,2,0.2586158,61,1,0.437649181,x,0.6042,0,103,103,103,1,0.4274682,0.689975019,0.437649181,0.728894923,FALSE,,,,,,,,,,,,,,,,,,,,,,,,,,,,,,,,,
GOSH_A11,2023-11-10_10h50.38.031,two_step_task_legacy,2022.2.4,Win32,60.5620155,21,learning,0,resources/alien3_norm.png,0.448066099,resources/alien4_norm.png,0.744590341,TRUE,TRUE,2,0.518535178,purple,x,0.1498,alien3,TRUE,3,0.841804274,61,0,0.448066099,x,0.5708,0,104,104,104,1,0.394205489,0.723807258,0.448066099,0.744590341,FALSE,,,,,,,,,,,,,,,,,,,,,,,,,,,,,,,,,
GOSH_A11,2023-11-10_10h50.38.031,two_step_task_legacy,2022.2.4,Win32,60.5620155,21,learning,0,resources/alien2_norm.png,0.742093466,resources/alien1_norm.png,0.37371153,TRUE,TRUE,3,0.085350785,red,m,0.2451,alien1,TRUE,3,0.713934118,61,0,0.37371153,m,0.9494,0,105,105,105,1,0.37371153,0.742093466,0.485443502,0.723819794,TRUE,,,,,,,,,,,,,,,,,,,,,,,,,,,,,,,,,
GOSH_A11,2023-11-10_10h50.38.031,two_step_task_legacy,2022.2.4,Win32,60.5620155,21,learning,1,resources/alien3_norm.png,0.478530119,resources/alien4_norm.png,0.67031434,TRUE,TRUE,2,0.939648667,purple,m,0.2083,alien4,TRUE,2,0.182193924,62,1,0.67031434,m,0.7122,0,106,106,106,1,0.349275118,0.734634343,0.478530119,0.67031434,FALSE,,,,,,,,,,,,,,,,,,,,,,,,,,,,,,,,,
GOSH_A11,2023-11-10_10h50.38.031,two_step_task_legacy,2022.2.4,Win32,60.5620155,21,learning,0,resources/alien2_norm.png,0.718841441,resources/alien1_norm.png,0.35021253,TRUE,TRUE,3,0.069115855,red,m,0.2157,alien2,TRUE,3,0.820368877,62,0,0.718841441,x,1.4129,0,107,107,107,1,0.35021253,0.718841441,0.495373807,0.709673268,TRUE,,,,,,,,,,,,,,,,,,,,,,,,,,,,,,,,,
GOSH_A11,2023-11-10_10h50.38.031,two_step_task_legacy,2022.2.4,Win32,60.5620155,21,learning,1,resources/alien4_norm.png,0.731898862,resources/alien3_norm.png,0.450735795,TRUE,TRUE,2,0.919999022,purple,m,0.2174,alien4,TRUE,2,0.415594855,63,1,0.731898862,x,0.5334,0,108,108,108,1,0.337348022,0.676963284,0.450735795,0.731898862,TRUE,,,,,,,,,,,,,,,,,,,,,,,,,,,,,,,,,
GOSH_A11,2023-11-10_10h50.38.031,two_step_task_legacy,2022.2.4,Win32,60.5620155,21,learning,1,resources/alien3_norm.png,0.480315234,resources/alien4_norm.png,0.74430369,TRUE,TRUE,2,0.903772998,purple,m,0.4001,alien4,TRUE,2,0.192337124,64,1,0.74430369,m,0.9209,0,109,109,109,1,0.322911322,0.662157072,0.480315234,0.74430369,FALSE,,,,,,,,,,,,,,,,,,,,,,,,,,,,,,,,,
GOSH_A11,2023-11-10_10h50.38.031,two_step_task_legacy,2022.2.4,Win32,60.5620155,21,learning,0,resources/alien2_norm.png,0.729054729,resources/alien1_norm.png,0.323042006,TRUE,TRUE,3,0.113545155,red,m,0.3462,alien1,TRUE,2,0.306793259,65,1,0.323042006,m,0.792,0,110,110,110,1,0.323042006,0.729054729,0.477745384,0.7400153,TRUE,,,,,,,,,,,,,,,,,,,,,,,,,,,,,,,,,
GOSH_A11,2023-11-10_10h50.38.031,two_step_task_legacy,2022.2.4,Win32,60.5620155,21,learning,0,resources/alien2_norm.png,0.717049686,resources/alien1_norm.png,0.346977723,TRUE,TRUE,3,0.234937124,red,m,0.2872,alien1,TRUE,3,0.76490482,65,0,0.346977723,m,0.4602,0,111,111,111,1,0.346977723,0.717049686,0.502964312,0.740528536,TRUE,,,,,,,,,,,,,,,,,,,,,,,,,,,,,,,,,
GOSH_A11,2023-11-10_10h50.38.031,two_step_task_legacy,2022.2.4,Win32,60.5620155,21,learning,1,resources/alien3_norm.png,0.560076847,resources/alien4_norm.png,0.746181252,TRUE,TRUE,2,0.76520863,purple,m,0.5558,alien3,TRUE,3,0.919839015,65,0,0.560076847,x,0.6439,0,112,112,112,1,0.332641057,0.710505866,0.560076847,0.746181252,FALSE,,,,,,,,,,,,,,,,,,,,,,,,,,,,,,,,,
GOSH_A11,2023-11-10_10h50.38.031,two_step_task_legacy,2022.2.4,Win32,60.5620155,21,learning,1,resources/alien4_norm.png,0.737084193,resources/alien3_norm.png,0.551953466,TRUE,TRUE,2,0.765097608,purple,m,0.1823,alien3,TRUE,3,0.948721511,65,0,0.551953466,m,1.3799,0,113,113,113,1,0.329582244,0.713556046,0.551953466,0.737084193,TRUE,,,,,,,,,,,,,,,,,,,,,,,,,,,,,,,,,
GOSH_A11,2023-11-10_10h50.38.031,two_step_task_legacy,2022.2.4,Win32,60.5620155,21,learning,1,resources/alien4_norm.png,0.722210778,resources/alien3_norm.png,0.54581186,TRUE,TRUE,2,0.817399725,purple,m,0.2728,alien4,TRUE,3,0.869573949,65,0,0.722210778,x,0.4503,0,114,114,114,1,0.300863762,0.698255739,0.54581186,0.722210778,TRUE,,,,,,,,,,,,,,,,,,,,,,,,,,,,,,,,,
GOSH_A11,2023-11-10_10h50.38.031,two_step_task_legacy,2022.2.4,Win32,60.5620155,21,learning,0,resources/alien1_norm.png,0.335585272,resources/alien2_norm.png,0.683609207,TRUE,TRUE,3,0.404812742,red,m,0.0742,alien2,TRUE,2,0.60993697,66,1,0.683609207,m,2.4174,0,115,115,115,1,0.335585272,0.683609207,0.527422928,0.744852234,FALSE,,,,,,,,,,,,,,,,,,,,,,,,,,,,,,,,,
GOSH_A11,2023-11-10_10h50.38.031,two_step_task_legacy,2022.2.4,Win32,60.5620155,21,learning,0,resources/alien2_norm.png,0.690248802,resources/alien1_norm.png,0.358671417,TRUE,TRUE,3,0.519362867,red,m,0.3865,alien2,TRUE,2,0.521491839,67,1,0.690248802,x,0.4738,0,116,116,116,1,0.358671417,0.690248802,0.529277885,0.710357088,TRUE,,,,,,,,,,,,,,,,,,,,,,,,,,,,,,,,,
GOSH_A11,2023-11-10_10h50.38.031,two_step_task_legacy,2022.2.4,Win32,60.5620155,21,learning,0,resources/alien1_norm.png,0.395365799,resources/alien2_norm.png,0.718538292,TRUE,TRUE,3,0.698479736,red,m,0.5057,alien2,TRUE,3,0.898463824,67,0,0.718538292,m,0.7058,0,117,117,117,1,0.395365799,0.718538292,0.547665382,0.724019431,FALSE,,,,,,,,,,,,,,,,,,,,,,,,,,,,,,,,,
GOSH_A11,2023-11-10_10h50.38.031,two_step_task_legacy,2022.2.4,Win32,60.5620155,21,learning,1,resources/alien3_norm.png,0.542102089,resources/alien4_norm.png,0.74235091,TRUE,TRUE,2,0.781895115,purple,m,0.2513,alien3,TRUE,3,0.99209247,67,0,0.542102089,x,0.9269,0,118,118,118,1,0.384016558,0.721594268,0.542102089,0.74235091,FALSE,,,,,,,,,,,,,,,,,,,,,,,,,,,,,,,,,
GOSH_A11,2023-11-10_10h50.38.031,two_step_task_legacy,2022.2.4,Win32,60.5620155,21,learning,0,resources/alien4_norm.png,0.742572012,resources/alien3_norm.png,0.527099802,TRUE,TRUE,2,0.549817767,purple,x,0.3275,alien4,TRUE,2,0.155441802,68,1,0.742572012,x,0.7252,0,119,119,119,1,0.379194304,0.706850908,0.527099802,0.742572012,TRUE,,,,,,,,,,,,,,,,,,,,,,,,,,,,,,,,,
GOSH_A11,2023-11-10_10h50.38.031,two_step_task_legacy,2022.2.4,Win32,60.5620155,21,learning,0,resources/alien2_norm.png,0.742746316,resources/alien1_norm.png,0.311589413,TRUE,TRUE,3,0.534494298,red,m,0.2909,alien1,TRUE,3,0.439860686,68,0,0.311589413,m,0.5733,0,120,120,120,1,0.311589413,0.742746316,0.497453415,0.747849489,TRUE,,,,,,,,,,,,,,,,,,,,,,,,,,,,,,,,,
GOSH_A11,2023-11-10_10h50.38.031,two_step_task_legacy,2022.2.4,Win32,60.5620155,21,learning,0,resources/alien1_norm.png,0.288613638,resources/alien2_norm.png,0.734331013,TRUE,TRUE,3,0.262521593,red,m,0.283,alien2,TRUE,2,0.501634562,69,1,0.734331013,m,0.6465,0,121,121,121,1,0.288613638,0.734331013,0.493636211,0.732948846,FALSE,,,,,,,,,,,,,,,,,,,,,,,,,,,,,,,,,
GOSH_A11,2023-11-10_10h50.38.031,two_step_task_legacy,2022.2.4,Win32,60.5620155,21,learning,0,resources/alien1_norm.png,0.327163232,resources/alien2_norm.png,0.735030185,TRUE,TRUE,3,0.275440398,red,m,0.3206,alien2,TRUE,2,0.239656208,70,1,0.735030185,m,0.6332,0,122,122,122,1,0.327163232,0.735030185,0.458718952,0.712748711,FALSE,,,,,,,,,,,,,,,,,,,,,,,,,,,,,,,,,
GOSH_A11,2023-11-10_10h50.38.031,two_step_task_legacy,2022.2.4,Win32,60.5620155,21,learning,0,resources/alien4_norm.png,0.707920788,resources/alien3_norm.png,0.414123906,TRUE,TRUE,2,0.601339684,purple,x,0.2498,alien4,TRUE,3,0.81847697,70,0,0.707920788,x,0.5647,0,123,123,123,1,0.325553926,0.735188606,0.414123906,0.707920788,TRUE,,,,,,,,,,,,,,,,,,,,,,,,,,,,,,,,,
GOSH_A11,2023-11-10_10h50.38.031,two_step_task_legacy,2022.2.4,Win32,60.5620155,21,learning,0,resources/alien3_norm.png,0.358787311,resources/alien4_norm.png,0.719523144,TRUE,TRUE,2,0.550366612,purple,x,0.2831,alien3,TRUE,3,0.62621796,70,0,0.358787311,x,0.6796,0,124,124,124,1,0.332284924,0.728011457,0.358787311,0.719523144,FALSE,,,,,,,,,,,,,,,,,,,,,,,,,,,,,,,,,
GOSH_A11,2023-11-10_10h50.38.031,two_step_task_legacy,2022.2.4,Win32,60.5620155,21,learning,1,resources/alien4_norm.png,0.736399527,resources/alien3_norm.png,0.400002364,TRUE,TRUE,2,0.723309706,purple,m,0.2903,alien4,TRUE,2,0.159490132,71,1,0.736399527,x,2.3076,0,125,125,125,1,0.326093405,0.695840729,0.400002364,0.736399527,TRUE,,,,,,,,,,,,,,,,,,,,,,,,,,,,,,,,,
GOSH_A11,2023-11-10_10h50.38.031,two_step_task_legacy,2022.2.4,Win32,60.5620155,21,learning,1,resources/alien2_norm.png,0.660568372,resources/alien1_norm.png,0.323930204,TRUE,TRUE,3,0.915622173,red,x,0.2849,alien2,TRUE,2,0.117085918,72,1,0.660568372,x,1.1616,0,126,126,126,1,0.323930204,0.660568372,0.427141787,0.734764761,TRUE,,,,,,,,,,,,,,,,,,,,,,,,,,,,,,,,,
GOSH_A11,2023-11-10_10h50.38.031,two_step_task_legacy,2022.2.4,Win32,60.5620155,21,learning,0,resources/alien3_norm.png,0.427069701,resources/alien4_norm.png,0.72143708,TRUE,TRUE,2,0.406165905,purple,x,0.2206,alien4,TRUE,2,0.385047651,73,1,0.72143708,m,0.5919,0,127,127,127,1,0.340229983,0.647692248,0.427069701,0.72143708,FALSE,,,,,,,,,,,,,,,,,,,,,,,,,,,,,,,,,
GOSH_A11,2023-11-10_10h50.38.031,two_step_task_legacy,2022.2.4,Win32,60.5620155,21,learning,0,resources/alien4_norm.png,0.744385778,resources/alien3_norm.png,0.40499619,TRUE,TRUE,2,0.642103723,purple,x,0.0531,alien4,TRUE,2,0.729604779,74,1,0.744385778,x,0.6717,0,128,128,128,1,0.338813549,0.630816083,0.40499619,0.744385778,TRUE,,,,,,,,,,,,,,,,,,,,,,,,,,,,,,,,,
GOSH_A11,2023-11-10_10h50.38.031,two_step_task_legacy,2022.2.4,Win32,60.5620155,21,learning,0,resources/alien1_norm.png,0.336434737,resources/alien2_norm.png,0.661989018,TRUE,TRUE,3,0.39139956,red,m,0.2146,alien2,TRUE,2,0.18953108,75,1,0.661989018,m,0.9047,0,129,129,129,1,0.336434737,0.661989018,0.444389232,0.724357321,FALSE,,,,,,,,,,,,,,,,,,,,,,,,,,,,,,,,,
GOSH_A11,2023-11-10_10h50.38.031,two_step_task_legacy,2022.2.4,Win32,60.5620155,21,learning,0,resources/alien1_norm.png,0.290559274,resources/alien2_norm.png,0.672971781,TRUE,TRUE,3,0.095487392,red,m,0.2166,alien2,TRUE,3,0.953275664,75,0,0.672971781,m,0.675,0,130,130,130,1,0.290559274,0.672971781,0.428715926,0.730204744,FALSE,,,,,,,,,,,,,,,,,,,,,,,,,,,,,,,,,
GOSH_A11,2023-11-10_10h50.38.031,two_step_task_legacy,2022.2.4,Win32,60.5620155,21,learning,0,resources/alien1_norm.png,0.316122369,resources/alien2_norm.png,0.620277314,TRUE,TRUE,3,0.113928192,red,m,0.3286,alien1,TRUE,2,0.30488475,76,1,0.316122369,x,0.911,0,131,131,131,1,0.316122369,0.620277314,0.426712563,0.736924708,FALSE,,,,,,,,,,,,,,,,,,,,,,,,,,,,,,,,,
GOSH_A11,2023-11-10_10h50.38.031,two_step_task_legacy,2022.2.4,Win32,60.5620155,21,learning,0,resources/alien3_norm.png,0.428806971,resources/alien4_norm.png,0.745455893,TRUE,TRUE,2,0.206257153,purple,x,0.1998,alien4,TRUE,3,0.993042054,76,0,0.745455893,m,0.5324,0,132,132,132,1,0.351537647,0.634556363,0.428806971,0.745455893,FALSE,,,,,,,,,,,,,,,,,,,,,,,,,,,,,,,,,
GOSH_A11,2023-11-10_10h50.38.031,two_step_task_legacy,2022.2.4,Win32,60.5620155,21,learning,1,resources/alien2_norm.png,0.630455363,resources/alien1_norm.png,0.36337083,TRUE,TRUE,3,0.998499895,red,x,0.6201,alien1,TRUE,3,0.521581711,76,0,0.36337083,m,0.977,0,133,133,133,1,0.36337083,0.630455363,0.393697106,0.746235282,TRUE,,,,,,,,,,,,,,,,,,,,,,,,,,,,,,,,,
GOSH_A11,2023-11-10_10h50.38.031,two_step_task_legacy,2022.2.4,Win32,60.5620155,21,learning,1,resources/alien4_norm.png,0.744542488,resources/alien3_norm.png,0.40193756,TRUE,TRUE,2,0.728030414,purple,m,0.2586,alien3,TRUE,3,0.659897875,76,0,0.40193756,m,1.5285,0,134,134,134,1,0.391533394,0.629464294,0.40193756,0.744542488,TRUE,,,,,,,,,,,,,,,,,,,,,,,,,,,,,,,,,
GOSH_A11,2023-11-10_10h50.38.031,two_step_task_legacy,2022.2.4,Win32,60.5620155,21,learning,0,resources/alien1_norm.png,0.369719776,resources/alien2_norm.png,0.638245617,TRUE,TRUE,3,0.321696908,red,m,0.3062,alien2,TRUE,2,0.52435237,77,1,0.638245617,m,0.4824,0,135,135,135,1,0.369719776,0.638245617,0.393998803,0.715176093,FALSE,,,,,,,,,,,,,,,,,,,,,,,,,,,,,,,,,
GOSH_A11,2023-11-10_10h50.38.031,two_step_task_legacy,2022.2.4,Win32,60.5620155,21,learning,0,resources/alien2_norm.png,0.649511756,resources/alien1_norm.png,0.366198559,TRUE,TRUE,3,0.216017948,red,m,0.1931,alien2,TRUE,3,0.708878877,77,0,0.649511756,x,1.0523,0,136,136,136,1,0.366198559,0.649511756,0.413754202,0.707095008,TRUE,,,,,,,,,,,,,,,,,,,,,,,,,,,,,,,,,
GOSH_A11,2023-11-10_10h50.38.031,two_step_task_legacy,2022.2.4,Win32,60.5620155,21,learning,0,resources/alien1_norm.png,0.382888211,resources/alien2_norm.png,0.652072629,TRUE,TRUE,3,0.688883209,red,m,0.1445,alien1,TRUE,3,0.64201887,77,0,0.382888211,x,1.0215,0,137,137,137,1,0.382888211,0.652072629,0.397718097,0.712484856,FALSE,,,,,,,,,,,,,,,,,,,,,,,,,,,,,,,,,
GOSH_A11,2023-11-10_10h50.38.031,two_step_task_legacy,2022.2.4,Win32,60.5620155,21,learning,0,resources/alien1_norm.png,0.343581066,resources/alien2_norm.png,0.668249043,TRUE,TRUE,3,0.471858314,red,m,0.2312,alien1,TRUE,3,0.967238208,77,0,0.343581066,x,0.8567,0,138,138,138,1,0.343581066,0.668249043,0.403132479,0.693717942,FALSE,,,,,,,,,,,,,,,,,,,,,,,,,,,,,,,,,
GOSH_A11,2023-11-10_10h50.38.031,two_step_task_legacy,2022.2.4,Win32,60.5620155,21,learning,1,resources/alien4_norm.png,0.688514127,resources/alien3_norm.png,0.435461559,TRUE,TRUE,2,0.86311976,purple,m,0.3744,alien3,TRUE,3,0.498111288,77,0,0.435461559,m,1.2727,0,139,139,139,1,0.363838317,0.672524194,0.435461559,0.688514127,TRUE,,,,,,,,,,,,,,,,,,,,,,,,,,,,,,,,,
GOSH_A11,2023-11-10_10h50.38.031,two_step_task_legacy,2022.2.4,Win32,60.5620155,21,learning,1,resources/alien4_norm.png,0.693632034,resources/alien3_norm.png,0.439845091,TRUE,TRUE,2,0.937838593,purple,m,0.5729,alien4,TRUE,2,0.328803046,78,1,0.693632034,x,1.2012,0,140,140,140,1,0.379344852,0.710972025,0.439845091,0.693632034,TRUE,,,,,,,,,,,,,,,,,,,,,,,,,,,,,,,,,
GOSH_A11,2023-11-10_10h50.38.031,two_step_task_legacy,2022.2.4,Win32,60.5620155,21,learning,0,resources/alien1_norm.png,0.373374152,resources/alien2_norm.png,0.729873496,TRUE,TRUE,3,0.270890579,red,m,0.3345,alien2,TRUE,2,0.639673197,79,1,0.729873496,m,0.819,0,141,141,141,1,0.373374152,0.729873496,0.431317014,0.69214813,FALSE,,,,,,,,,,,,,,,,,,,,,,,,,,,,,,,,,
GOSH_A11,2023-11-10_10h50.38.031,two_step_task_legacy,2022.2.4,Win32,60.5620155,21,learning,0,resources/alien3_norm.png,0.452030427,resources/alien4_norm.png,0.674123188,TRUE,TRUE,2,0.14478776,purple,x,0.1523,alien4,TRUE,2,0.212729536,80,1,0.674123188,m,0.855,0,142,142,142,1,0.390669051,0.716383606,0.452030427,0.674123188,FALSE,,,,,,,,,,,,,,,,,,,,,,,,,,,,,,,,,
GOSH_A11,2023-11-10_10h50.38.031,two_step_task_legacy,2022.2.4,Win32,60.5620155,21,learning,1,resources/alien4_norm.png,0.639333921,resources/alien3_norm.png,0.442360919,TRUE,TRUE,2,0.848920559,purple,m,0.266,alien4,TRUE,3,0.978170166,80,0,0.639333921,x,0.84,0,143,143,143,1,0.339477736,0.744969912,0.442360919,0.639333921,TRUE,,,,,,,,,,,,,,,,,,,,,,,,,,,,,,,,,
GOSH_A11,2023-11-10_10h50.38.031,two_step_task_legacy,2022.2.4,Win32,60.5620155,21,learning,0,resources/alien1_norm.png,0.317803938,resources/alien2_norm.png,0.710844956,TRUE,TRUE,3,0.50261827,red,m,0.3672,alien2,TRUE,2,0.582413666,81,1,0.710844956,m,0.7986,0,144,144,144,1,0.317803938,0.710844956,0.42051828,0.612593584,FALSE,,,,,,,,,,,,,,,,,,,,,,,,,,,,,,,,,
GOSH_A11,2023-11-10_10h50.38.031,two_step_task_legacy,2022.2.4,Win32,60.5620155,21,learning,0,resources/alien3_norm.png,0.446044137,resources/alien4_norm.png,0.635215037,TRUE,TRUE,2,0.11708558,purple,x,0.3842,alien3,TRUE,3,0.735189701,81,0,0.446044137,x,0.4928,0,145,145,145,1,0.311104109,0.746481624,0.446044137,0.635215037,FALSE,,,,,,,,,,,,,,,,,,,,,,,,,,,,,,,,,
GOSH_A11,2023-11-10_10h50.38.031,two_step_task_legacy,2022.2.4,Win32,60.5620155,21,learning,0,resources/alien3_norm.png,0.457400821,resources/alien4_norm.png,0.626838599,TRUE,TRUE,2,0.428765988,purple,x,0.3834,alien3,TRUE,3,0.677976666,81,0,0.457400821,x,0.4408,0,146,146,146,1,0.322435636,0.748817246,0.457400821,0.626838599,FALSE,,,,,,,,,,,,,,,,,,,,,,,,,,,,,,,,,
GOSH_A11,2023-11-10_10h50.38.031,two_step_task_legacy,2022.2.4,Win32,60.5620155,21,learning,0,resources/alien4_norm.png,0.604796627,resources/alien3_norm.png,0.444423405,TRUE,TRUE,2,0.663482119,purple,x,0.2292,alien4,TRUE,2,0.013545636,82,1,0.604796627,x,0.4959,0,147,147,147,1,0.311003061,0.708845948,0.444423405,0.604796627,TRUE,,,,,,,,,,,,,,,,,,,,,,,,,,,,,,,,,
GOSH_A11,2023-11-10_10h50.38.031,two_step_task_legacy,2022.2.4,Win32,60.5620155,21,learning,0,resources/alien4_norm.png,0.575008043,resources/alien3_norm.png,0.466381219,TRUE,TRUE,2,0.332093239,purple,x,0.2821,alien4,TRUE,2,0.362977033,83,1,0.575008043,x,0.4557,0,148,148,148,1,0.323921279,0.709213445,0.466381219,0.575008043,TRUE,,,,,,,,,,,,,,,,,,,,,,,,,,,,,,,,,
GOSH_A11,2023-11-10_10h50.38.031,two_step_task_legacy,2022.2.4,Win32,60.5620155,21,learning,1,resources/alien2_norm.png,0.703134316,resources/alien1_norm.png,0.320184667,TRUE,TRUE,3,0.972759478,red,x,0.0889,alien2,TRUE,3,0.907802618,83,0,0.703134316,x,1.2313,0,149,149,149,1,0.320184667,0.703134316,0.42955844,0.581290383,TRUE,,,,,,,,,,,,,,,,,,,,,,,,,,,,,,,,,
GOSH_A11,2023-11-10_10h50.38.031,two_step_task_legacy,2022.2.4,Win32,60.5620155,21,learning,0,resources/alien4_norm.png,0.6,resources/alien3_norm.png,0.4,TRUE,TRUE,2,0.428540646,purple,x,0.4372,alien4,TRUE,3,0.852519438,83,0,0.6,x,0.5814,0,150,150,150,1,0.3,0.7,0.4,0.6,TRUE,,,,,,,,,,,,,,,,,,,,,,,,,,,,,,,,,
GOSH_A11,2023-11-10_10h50.38.031,two_step_task_legacy,2022.2.4,Win32,60.5620155,21,learning,0,resources/alien4_norm.png,0.6,resources/alien3_norm.png,0.4,TRUE,TRUE,2,0.163745835,purple,x,0.8545,alien3,TRUE,2,0.070143328,84,1,0.4,m,0.6941,0,151,151,151,1,0.3,0.7,0.4,0.6,TRUE,,,,,,,,,,,,,,,,,,,,,,,,,,,,,,,,,
GOSH_A11,2023-11-10_10h50.38.031,two_step_task_legacy,2022.2.4,Win32,60.5620155,21,learning,0,resources/alien2_norm.png,0.7,resources/alien1_norm.png,0.3,TRUE,TRUE,3,0.162696251,red,m,0.2708,alien1,TRUE,3,0.502267447,84,0,0.3,m,0.8836,0,152,152,152,1,0.3,0.7,0.4,0.6,TRUE,,,,,,,,,,,,,,,,,,,,,,,,,,,,,,,,,
GOSH_A11,2023-11-10_10h50.38.031,two_step_task_legacy,2022.2.4,Win32,60.5620155,21,learning,0,resources/alien2_norm.png,0.7,resources/alien1_norm.png,0.3,TRUE,TRUE,3,0.538657442,red,m,0.2949,alien1,TRUE,2,0.258407151,85,1,0.3,m,0.4456,0,153,153,153,1,0.3,0.7,0.4,0.6,TRUE,,,,,,,,,,,,,,,,,,,,,,,,,,,,,,,,,
GOSH_A11,2023-11-10_10h50.38.031,two_step_task_legacy,2022.2.4,Win32,60.5620155,21,learning,0,resources/alien2_norm.png,0.7,resources/alien1_norm.png,0.3,TRUE,TRUE,3,0.332296445,red,m,0.3781,alien1,TRUE,2,0.207232372,86,1,0.3,m,0.7879,0,154,154,154,1,0.3,0.7,0.4,0.6,TRUE,,,,,,,,,,,,,,,,,,,,,,,,,,,,,,,,,
GOSH_A11,2023-11-10_10h50.38.031,two_step_task_legacy,2022.2.4,Win32,60.5620155,21,learning,0,resources/alien1_norm.png,0.3,resources/alien2_norm.png,0.7,TRUE,TRUE,3,0.31854155,red,m,0.2544,alien1,TRUE,3,0.935539072,86,0,0.3,x,0.6499,0,155,155,155,1,0.3,0.7,0.4,0.6,FALSE,,,,,,,,,,,,,,,,,,,,,,,,,,,,,,,,,
GOSH_A11,2023-11-10_10h50.38.031,two_step_task_legacy,2022.2.4,Win32,60.5620155,21,learning,1,resources/alien3_norm.png,0.4,resources/alien4_norm.png,0.6,TRUE,TRUE,2,0.90427677,purple,m,0.1389,alien3,TRUE,3,0.403553538,86,0,0.4,x,0.6384,0,156,156,156,1,0.3,0.7,0.4,0.6,FALSE,,,,,,,,,,,,,,,,,,,,,,,,,,,,,,,,,
GOSH_A11,2023-11-10_10h50.38.031,two_step_task_legacy,2022.2.4,Win32,60.5620155,21,learning,0,resources/alien3_norm.png,0.4,resources/alien4_norm.png,0.6,TRUE,TRUE,2,0.281753037,purple,x,0.0998,alien4,TRUE,2,0.063785702,87,1,0.6,m,0.6002,0,157,157,157,1,0.3,0.7,0.4,0.6,FALSE,,,,,,,,,,,,,,,,,,,,,,,,,,,,,,,,,
GOSH_A11,2023-11-10_10h50.38.031,two_step_task_legacy,2022.2.4,Win32,60.5620155,21,learning,0,resources/alien2_norm.png,0.7,resources/alien1_norm.png,0.3,TRUE,TRUE,3,0.136163649,red,m,0.2999,alien2,TRUE,2,0.40814845,88,1,0.7,x,0.6137,0,158,158,158,1,0.3,0.7,0.4,0.6,TRUE,,,,,,,,,,,,,,,,,,,,,,,,,,,,,,,,,
GOSH_A11,2023-11-10_10h50.38.031,two_step_task_legacy,2022.2.4,Win32,60.5620155,21,learning,0,resources/alien1_norm.png,0.3,resources/alien2_norm.png,0.7,TRUE,TRUE,3,0.401904484,red,m,0.2844,alien2,TRUE,2,0.170145226,89,1,0.7,m,0.6999,0,159,159,159,1,0.3,0.7,0.4,0.6,FALSE,,,,,,,,,,,,,,,,,,,,,,,,,,,,,,,,,
GOSH_A11,2023-11-10_10h50.38.031,two_step_task_legacy,2022.2.4,Win32,60.5620155,21,learning,0,resources/alien4_norm.png,0.6,resources/alien3_norm.png,0.4,TRUE,TRUE,2,0.697529267,purple,x,0.2451,alien4,TRUE,2,0.457839718,90,1,0.6,x,0.5765,0,160,160,160,1,0.3,0.7,0.4,0.6,TRUE,,,,,,,,,,,,,,,,,,,,,,,,,,,,,,,,,
GOSH_A11,2023-11-10_10h50.38.031,two_step_task_legacy,2022.2.4,Win32,60.5620155,21,learning,1,resources/alien3_norm.png,0.4,resources/alien4_norm.png,0.6,TRUE,TRUE,2,0.984213499,purple,m,0.0995,alien4,TRUE,3,0.607858787,90,0,0.6,m,0.691,0,161,161,161,1,0.3,0.7,0.4,0.6,FALSE,,,,,,,,,,,,,,,,,,,,,,,,,,,,,,,,,
GOSH_A11,2023-11-10_10h50.38.031,two_step_task_legacy,2022.2.4,Win32,60.5620155,21,learning,0,resources/alien4_norm.png,0.6,resources/alien3_norm.png,0.4,TRUE,TRUE,2,0.658794258,purple,x,0.4677,alien3,TRUE,3,0.934072716,90,0,0.4,m,0.8956,0,162,162,162,1,0.3,0.7,0.4,0.6,TRUE,,,,,,,,,,,,,,,,,,,,,,,,,,,,,,,,,
GOSH_A11,2023-11-10_10h50.38.031,two_step_task_legacy,2022.2.4,Win32,60.5620155,21,learning,0,resources/alien2_norm.png,0.7,resources/alien1_norm.png,0.3,TRUE,TRUE,3,0.453262472,red,m,0.1565,alien2,TRUE,2,0.691189071,91,1,0.7,x,1.1532,0,163,163,163,1,0.3,0.7,0.4,0.6,TRUE,,,,,,,,,,,,,,,,,,,,,,,,,,,,,,,,,
GOSH_A11,2023-11-10_10h50.38.031,two_step_task_legacy,2022.2.4,Win32,60.5620155,21,learning,0,resources/alien1_norm.png,0.3,resources/alien2_norm.png,0.7,TRUE,TRUE,3,0.446648802,red,m,0.241,alien2,TRUE,3,0.893173593,91,0,0.7,m,0.6898,0,164,164,164,1,0.3,0.7,0.4,0.6,FALSE,,,,,,,,,,,,,,,,,,,,,,,,,,,,,,,,,
GOSH_A11,2023-11-10_10h50.38.031,two_step_task_legacy,2022.2.4,Win32,60.5620155,21,learning,0,resources/alien1_norm.png,0.3,resources/alien2_norm.png,0.7,TRUE,TRUE,3,0.356016255,red,m,0.2879,alien1,TRUE,2,0.128578856,92,1,0.3,x,0.8011,0,165,165,165,1,0.3,0.7,0.4,0.6,FALSE,,,,,,,,,,,,,,,,,,,,,,,,,,,,,,,,,
GOSH_A11,2023-11-10_10h50.38.031,two_step_task_legacy,2022.2.4,Win32,60.5620155,21,learning,0,resources/alien2_norm.png,0.7,resources/alien1_norm.png,0.3,TRUE,TRUE,3,0.197675262,red,m,0.3,alien1,TRUE,3,0.728063304,92,0,0.3,m,0.8607,0,166,166,166,1,0.3,0.7,0.4,0.6,TRUE,,,,,,,,,,,,,,,,,,,,,,,,,,,,,,,,,
GOSH_A11,2023-11-10_10h50.38.031,two_step_task_legacy,2022.2.4,Win32,60.5620155,21,learning,1,resources/alien3_norm.png,0.4,resources/alien4_norm.png,0.6,TRUE,TRUE,2,0.94925922,purple,m,0.9512,alien3,TRUE,3,0.545202704,92,0,0.4,x,0.6884,0,167,167,167,1,0.3,0.7,0.4,0.6,FALSE,,,,,,,,,,,,,,,,,,,,,,,,,,,,,,,,,
GOSH_A11,2023-11-10_10h50.38.031,two_step_task_legacy,2022.2.4,Win32,60.5620155,21,learning,0,resources/alien2_norm.png,0.7,resources/alien1_norm.png,0.3,TRUE,TRUE,3,0.474436284,red,m,1.2852,alien2,TRUE,3,0.721980249,92,0,0.7,x,1.2327,0,168,168,168,1,0.3,0.7,0.4,0.6,TRUE,,,,,,,,,,,,,,,,,,,,,,,,,,,,,,,,,
GOSH_A11,2023-11-10_10h50.38.031,two_step_task_legacy,2022.2.4,Win32,60.5620155,21,learning,0,resources/alien2_norm.png,0.7,resources/alien1_norm.png,0.3,TRUE,TRUE,3,0.166416635,red,m,1.3582,alien1,TRUE,3,0.709115405,92,0,0.3,m,0.4739,0,169,169,169,1,0.3,0.7,0.4,0.6,TRUE,,,,,,,,,,,,,,,,,,,,,,,,,,,,,,,,,
GOSH_A11,2023-11-10_10h50.38.031,two_step_task_legacy,2022.2.4,Win32,60.5620155,21,learning,0,resources/alien2_norm.png,0.7,resources/alien1_norm.png,0.3,TRUE,TRUE,3,0.56444288,red,m,0.2697,alien2,TRUE,3,0.964679339,92,0,0.7,x,0.423,0,170,170,170,1,0.3,0.7,0.4,0.6,TRUE,,,,,,,,,,,,,,,,,,,,,,,,,,,,,,,,,
GOSH_A11,2023-11-10_10h50.38.031,two_step_task_legacy,2022.2.4,Win32,60.5620155,21,learning,0,resources/alien1_norm.png,0.3,resources/alien2_norm.png,0.7,TRUE,TRUE,3,0.06475323,red,m,0.2728,alien2,TRUE,2,0.344289272,93,1,0.7,m,0.4228,0,171,171,171,1,0.3,0.7,0.4,0.6,FALSE,,,,,,,,,,,,,,,,,,,,,,,,,,,,,,,,,
GOSH_A11,2023-11-10_10h50.38.031,two_step_task_legacy,2022.2.4,Win32,60.5620155,21,learning,0,resources/alien1_norm.png,0.3,resources/alien2_norm.png,0.7,TRUE,TRUE,3,0.614418487,red,m,0.3029,alien2,TRUE,3,0.723725973,93,0,0.7,m,0.5517,0,172,172,172,1,0.3,0.7,0.4,0.6,FALSE,,,,,,,,,,,,,,,,,,,,,,,,,,,,,,,,,
GOSH_A11,2023-11-10_10h50.38.031,two_step_task_legacy,2022.2.4,Win32,60.5620155,21,learning,0,resources/alien2_norm.png,0.7,resources/alien1_norm.png,0.3,TRUE,TRUE,3,0.145216227,red,m,0.1367,alien1,TRUE,3,0.611211658,93,0,0.3,m,0.921,0,173,173,173,1,0.3,0.7,0.4,0.6,TRUE,,,,,,,,,,,,,,,,,,,,,,,,,,,,,,,,,
GOSH_A11,2023-11-10_10h50.38.031,two_step_task_legacy,2022.2.4,Win32,60.5620155,21,learning,0,resources/alien1_norm.png,0.3,resources/alien2_norm.png,0.7,TRUE,TRUE,3,0.12579031,red,m,0.2842,alien1,TRUE,3,0.864482329,93,0,0.3,x,0.203,0,174,174,174,1,0.3,0.7,0.4,0.6,FALSE,,,,,,,,,,,,,,,,,,,,,,,,,,,,,,,,,
GOSH_A11,2023-11-10_10h50.38.031,two_step_task_legacy,2022.2.4,Win32,60.5620155,21,learning,0,resources/alien1_norm.png,0.3,resources/alien2_norm.png,0.7,TRUE,TRUE,3,0.247678489,red,m,0.3664,alien2,TRUE,2,0.288480123,94,1,0.7,m,0.6564,0,175,175,175,1,0.3,0.7,0.4,0.6,FALSE,,,,,,,,,,,,,,,,,,,,,,,,,,,,,,,,,
GOSH_A11,2023-11-10_10h50.38.031,two_step_task_legacy,2022.2.4,Win32,60.5620155,21,learning,1,resources/alien3_norm.png,0.4,resources/alien4_norm.png,0.6,TRUE,TRUE,2,0.751380529,purple,m,0.2387,alien4,TRUE,3,0.996949251,94,0,0.6,m,0.8364,0,176,176,176,1,0.3,0.7,0.4,0.6,FALSE,,,,,,,,,,,,,,,,,,,,,,,,,,,,,,,,,
GOSH_A11,2023-11-10_10h50.38.031,two_step_task_legacy,2022.2.4,Win32,60.5620155,21,learning,0,resources/alien2_norm.png,0.7,resources/alien1_norm.png,0.3,TRUE,TRUE,3,0.582935532,red,m,0.1504,alien2,TRUE,2,0.035017298,95,1,0.7,x,0.8932,0,177,177,177,1,0.3,0.7,0.4,0.6,TRUE,,,,,,,,,,,,,,,,,,,,,,,,,,,,,,,,,
GOSH_A11,2023-11-10_10h50.38.031,two_step_task_legacy,2022.2.4,Win32,60.5620155,21,learning,0,resources/alien1_norm.png,0.3,resources/alien2_norm.png,0.7,TRUE,TRUE,3,0.344778034,red,m,0.1212,alien2,TRUE,2,0.249436192,96,1,0.7,m,0.871,0,178,178,178,1,0.3,0.7,0.4,0.6,FALSE,,,,,,,,,,,,,,,,,,,,,,,,,,,,,,,,,
GOSH_A11,2023-11-10_10h50.38.031,two_step_task_legacy,2022.2.4,Win32,60.5620155,21,learning,0,resources/alien4_norm.png,0.6,resources/alien3_norm.png,0.4,TRUE,TRUE,2,0.689728599,purple,x,0.2608,alien3,TRUE,2,0.321232541,97,1,0.4,m,1.1557,0,179,179,179,1,0.3,0.7,0.4,0.6,TRUE,,,,,,,,,,,,,,,,,,,,,,,,,,,,,,,,,
GOSH_A11,2023-11-10_10h50.38.031,two_step_task_legacy,2022.2.4,Win32,60.5620155,21,learning,0,resources/alien1_norm.png,0.3,resources/alien2_norm.png,0.7,TRUE,TRUE,3,0.13527748,red,m,0.2902,alien2,TRUE,2,0.656309586,98,1,0.7,m,0.5332,0,180,180,180,1,0.3,0.7,0.4,0.6,FALSE,,,,,,,,,,,,,,,,,,,,,,,,,,,,,,,,,
GOSH_A11,2023-11-10_10h50.38.031,two_step_task_legacy,2022.2.4,Win32,60.5620155,21,learning,0,resources/alien4_norm.png,0.6,resources/alien3_norm.png,0.4,TRUE,TRUE,2,0.622026692,purple,x,0.1651,alien3,TRUE,3,0.40124742,98,0,0.4,m,0.6864,0,181,181,181,1,0.3,0.7,0.4,0.6,TRUE,,,,,,,,,,,,,,,,,,,,,,,,,,,,,,,,,
GOSH_A11,2023-11-10_10h50.38.031,two_step_task_legacy,2022.2.4,Win32,60.5620155,21,learning,0,resources/alien4_norm.png,0.6,resources/alien3_norm.png,0.4,TRUE,TRUE,2,0.180402618,purple,x,0.0266,alien4,TRUE,2,0.11335818,99,1,0.6,x,0.9211,0,182,182,182,1,0.3,0.7,0.4,0.6,TRUE,,,,,,,,,,,,,,,,,,,,,,,,,,,,,,,,,
GOSH_A11,2023-11-10_10h50.38.031,two_step_task_legacy,2022.2.4,Win32,60.5620155,21,learning,0,resources/alien3_norm.png,0.4,resources/alien4_norm.png,0.6,TRUE,TRUE,2,0.02283075,purple,x,0.0553,alien4,TRUE,2,0.131354359,100,1,0.6,m,0.6324,0,183,183,183,1,0.3,0.7,0.4,0.6,FALSE,,,,,,,,,,,,,,,,,,,,,,,,,,,,,,,,,
GOSH_A11,2023-11-10_10h50.38.031,two_step_task_legacy,2022.2.4,Win32,60.5620155,21,learning,0,resources/alien3_norm.png,0.4,resources/alien4_norm.png,0.6,TRUE,TRUE,2,0.303796937,purple,x,0.1561,alien4,TRUE,2,0.065975605,101,1,0.6,m,0.7199,0,184,184,184,1,0.3,0.7,0.4,0.6,FALSE,,,,,,,,,,,,,,,,,,,,,,,,,,,,,,,,,
GOSH_A11,2023-11-10_10h50.38.031,two_step_task_legacy,2022.2.4,Win32,60.5620155,21,learning,0,resources/alien4_norm.png,0.6,resources/alien3_norm.png,0.4,TRUE,TRUE,2,0.507171853,purple,x,0.3707,alien4,TRUE,3,0.635549092,101,0,0.6,x,0.5841,0,185,185,185,1,0.3,0.7,0.4,0.6,TRUE,,,,,,,,,,,,,,,,,,,,,,,,,,,,,,,,,
GOSH_A11,2023-11-10_10h50.38.031,two_step_task_legacy,2022.2.4,Win32,60.5620155,21,learning,0,resources/alien2_norm.png,0.7,resources/alien1_norm.png,0.3,TRUE,TRUE,3,0.340121085,red,m,0.1779,alien2,TRUE,3,0.823404927,101,0,0.7,x,0.9068,0,186,186,186,1,0.3,0.7,0.4,0.6,TRUE,,,,,,,,,,,,,,,,,,,,,,,,,,,,,,,,,
GOSH_A11,2023-11-10_10h50.38.031,two_step_task_legacy,2022.2.4,Win32,60.5620155,21,learning,0,resources/alien1_norm.png,0.3,resources/alien2_norm.png,0.7,TRUE,TRUE,3,0.591274985,red,m,0.421,alien1,TRUE,3,0.374339116,101,0,0.3,x,0.4834,0,187,187,187,1,0.3,0.7,0.4,0.6,FALSE,,,,,,,,,,,,,,,,,,,,,,,,,,,,,,,,,
GOSH_A11,2023-11-10_10h50.38.031,two_step_task_legacy,2022.2.4,Win32,60.5620155,21,learning,1,resources/alien1_norm.png,0.3,resources/alien2_norm.png,0.7,TRUE,TRUE,3,0.754942064,red,x,0.1747,alien1,TRUE,3,0.970313597,101,0,0.3,x,0.5238,0,188,188,188,1,0.3,0.7,0.4,0.6,FALSE,,,,,,,,,,,,,,,,,,,,,,,,,,,,,,,,,
GOSH_A11,2023-11-10_10h50.38.031,two_step_task_legacy,2022.2.4,Win32,60.5620155,21,learning,0,resources/alien1_norm.png,0.3,resources/alien2_norm.png,0.7,TRUE,TRUE,3,0.223534226,red,m,0.0645,alien2,TRUE,2,0.176262966,102,1,0.7,m,0.5009,0,189,189,189,1,0.3,0.7,0.4,0.6,FALSE,,,,,,,,,,,,,,,,,,,,,,,,,,,,,,,,,
GOSH_A11,2023-11-10_10h50.38.031,two_step_task_legacy,2022.2.4,Win32,60.5620155,21,learning,0,resources/alien2_norm.png,0.7,resources/alien1_norm.png,0.3,TRUE,TRUE,3,0.078412771,red,m,0.6176,alien2,TRUE,2,0.024296909,103,1,0.7,x,0.6324,0,190,190,190,1,0.3,0.7,0.4,0.6,TRUE,,,,,,,,,,,,,,,,,,,,,,,,,,,,,,,,,
GOSH_A11,2023-11-10_10h50.38.031,two_step_task_legacy,2022.2.4,Win32,60.5620155,21,learning,0,resources/alien4_norm.png,0.6,resources/alien3_norm.png,0.4,TRUE,TRUE,2,0.670716849,purple,x,0.5833,alien4,TRUE,3,0.956119335,103,0,0.6,x,0.4696,0,191,191,191,1,0.3,0.7,0.4,0.6,TRUE,,,,,,,,,,,,,,,,,,,,,,,,,,,,,,,,,
GOSH_A11,2023-11-10_10h50.38.031,two_step_task_legacy,2022.2.4,Win32,60.5620155,21,learning,0,resources/alien4_norm.png,0.6,resources/alien3_norm.png,0.4,TRUE,TRUE,2,0.429699925,purple,x,0.2817,alien3,TRUE,3,0.792673267,103,0,0.4,m,0.6742,0,192,192,192,1,0.3,0.7,0.4,0.6,TRUE,,,,,,,,,,,,,,,,,,,,,,,,,,,,,,,,,
GOSH_A11,2023-11-10_10h50.38.031,two_step_task_legacy,2022.2.4,Win32,60.5620155,21,learning,0,resources/alien4_norm.png,0.6,resources/alien3_norm.png,0.4,TRUE,TRUE,2,0.446493249,purple,x,0.2339,alien4,TRUE,2,0.179899286,104,1,0.6,x,0.9375,0,193,193,193,1,0.3,0.7,0.4,0.6,TRUE,,,,,,,,,,,,,,,,,,,,,,,,,,,,,,,,,
GOSH_A11,2023-11-10_10h50.38.031,two_step_task_legacy,2022.2.4,Win32,60.5620155,21,learning,1,resources/alien4_norm.png,0.6,resources/alien3_norm.png,0.4,TRUE,TRUE,2,0.790340851,purple,m,0.3629,alien4,TRUE,3,0.957420119,104,0,0.6,x,0.662,0,194,194,194,1,0.3,0.7,0.4,0.6,TRUE,,,,,,,,,,,,,,,,,,,,,,,,,,,,,,,,,
GOSH_A11,2023-11-10_10h50.38.031,two_step_task_legacy,2022.2.4,Win32,60.5620155,21,learning,1,resources/alien3_norm.png,0.4,resources/alien4_norm.png,0.6,TRUE,TRUE,2,0.740202845,purple,m,0.1045,alien3,TRUE,3,0.558992836,104,0,0.4,x,0.8951,0,195,195,195,1,0.3,0.7,0.4,0.6,FALSE,,,,,,,,,,,,,,,,,,,,,,,,,,,,,,,,,
GOSH_A11,2023-11-10_10h50.38.031,two_step_task_legacy,2022.2.4,Win32,60.5620155,21,learning,0,resources/alien1_norm.png,0.3,resources/alien2_norm.png,0.7,TRUE,TRUE,3,0.263872676,red,m,0.0222,alien2,TRUE,3,0.938681154,104,0,0.7,m,0.3333,0,196,196,196,1,0.3,0.7,0.4,0.6,FALSE,,,,,,,,,,,,,,,,,,,,,,,,,,,,,,,,,
GOSH_A11,2023-11-10_10h50.38.031,two_step_task_legacy,2022.2.4,Win32,60.5620155,21,learning,0,resources/alien1_norm.png,0.3,resources/alien2_norm.png,0.7,TRUE,TRUE,3,0.265455119,red,m,0.1353,alien1,TRUE,2,0.036753145,105,1,0.3,x,0.682,0,197,197,197,1,0.3,0.7,0.4,0.6,FALSE,,,,,,,,,,,,,,,,,,,,,,,,,,,,,,,,,
GOSH_A11,2023-11-10_10h50.38.031,two_step_task_legacy,2022.2.4,Win32,60.5620155,21,learning,0,resources/alien4_norm.png,0.6,resources/alien3_norm.png,0.4,TRUE,TRUE,2,0.148249797,purple,x,0.1176,alien3,TRUE,2,0.082865265,106,1,0.4,m,0.6202,0,198,198,198,1,0.3,0.7,0.4,0.6,TRUE,,,,,,,,,,,,,,,,,,,,,,,,,,,,,,,,,
GOSH_A11,2023-11-10_10h50.38.031,two_step_task_legacy,2022.2.4,Win32,60.5620155,21,learning,1,resources/alien4_norm.png,0.6,resources/alien3_norm.png,0.4,TRUE,TRUE,2,0.835966337,purple,m,0.2832,alien3,TRUE,3,0.636682079,106,0,0.4,m,1.303,0,199,199,199,1,0.3,0.7,0.4,0.6,TRUE,,,,,,,,,,,,,,,,,,,,,,,,,,,,,,,,,
GOSH_A11,2023-11-10_10h50.38.031,two_step_task_legacy,2022.2.4,Win32,60.5620155,21,learning,0,resources/alien2_norm.png,0.7,resources/alien1_norm.png,0.3,TRUE,TRUE,3,0.682139856,red,m,0.0005,alien1,TRUE,3,0.576799825,106,0,0.3,m,0.5473,0,200,200,200,1,0.3,0.7,0.4,0.6,TRUE,,,,,,,,,,,,,,,,,,,,,,,,,,,,,,,,,
GOSH_A11,2023-11-10_10h50.38.031,two_step_task_legacy,2022.2.4,Win32,60.5620155,21,learning,0,resources/alien4_norm.png,0.6,resources/alien3_norm.png,0.4,TRUE,TRUE,2,0.391564888,purple,x,0.4146,alien4,TRUE,3,0.891078481,106,0,0.6,x,0.5394,0,201,201,201,1,0.3,0.7,0.4,0.6,TRUE,,,,,,,,,,,,,,,,,,,,,,,,,,,,,,,,,
GOSH_A11,2023-11-10_10h50.38.031,two_step_task_legacy,2022.2.4,Win32,60.5620155,21,learning,0,resources/alien4_norm.png,0.6,resources/alien3_norm.png,0.4,TRUE,TRUE,2,0.64743914,purple,x,1.1753,alien3,TRUE,3,0.939631664,106,0,0.4,m,1.6615,0,202,202,202,1,0.3,0.7,0.4,0.6,TRUE,,,,,,,,,,,,,,,,,,,,,,,,,,,,,,,,,
GOSH_A11,2023-11-10_10h50.38.031,two_step_task_legacy,2022.2.4,Win32,60.5620155,21,learning,1,resources/alien1_norm.png,0.3,resources/alien2_norm.png,0.7,TRUE,TRUE,3,0.86499149,red,x,0.184,alien2,TRUE,2,0.624343597,107,1,0.7,m,0.3271,0,203,203,203,1,0.3,0.7,0.4,0.6,FALSE,,,,,,,,,,,,,,,,,,,,,,,,,,,,,,,,,
GOSH_A11,2023-11-10_10h50.38.031,two_step_task_legacy,2022.2.4,Win32,60.5620155,21,learning,1,resources/alien1_norm.png,0.3,resources/alien2_norm.png,0.7,TRUE,TRUE,3,0.988777488,red,x,0.5106,alien2,TRUE,2,0.547089211,108,1,0.7,m,0.4714,0,204,204,204,1,0.3,0.7,0.4,0.6,FALSE,,,,,,,,,,,,,,,,,,,,,,,,,,,,,,,,,
GOSH_A11,2023-11-10_10h50.38.031,two_step_task_legacy,2022.2.4,Win32,60.5620155,21,learning,0,resources/alien3_norm.png,0.4,resources/alien4_norm.png,0.6,TRUE,TRUE,2,0.303970127,purple,x,0.5534,alien3,TRUE,3,0.854519976,108,0,0.4,x,0.4879,0,205,205,205,1,0.3,0.7,0.4,0.6,FALSE,,,,,,,,,,,,,,,,,,,,,,,,,,,,,,,,,
GOSH_A11,2023-11-10_10h50.38.031,two_step_task_legacy,2022.2.4,Win32,60.5620155,21,learning,1,resources/alien3_norm.png,0.4,resources/alien4_norm.png,0.6,TRUE,TRUE,2,0.95373802,purple,m,0.309,alien4,TRUE,2,0.143856769,109,1,0.6,m,0.9289,0,206,206,206,1,0.3,0.7,0.4,0.6,FALSE,,,,,,,,,,,,,,,,,,,,,,,,,,,,,,,,,
GOSH_A11,2023-11-10_10h50.38.031,two_step_task_legacy,2022.2.4,Win32,60.5620155,21,learning,1,resources/alien3_norm.png,0.4,resources/alien4_norm.png,0.6,TRUE,TRUE,2,0.817179919,purple,m,0.3297,alien4,TRUE,2,0.239783857,110,1,0.6,m,0.5722,0,207,207,207,1,0.3,0.7,0.4,0.6,FALSE,,,,,,,,,,,,,,,,,,,,,,,,,,,,,,,,,
GOSH_A11,2023-11-10_10h50.38.031,two_step_task_legacy,2022.2.4,Win32,60.5620155,21,learning,1,resources/alien3_norm.png,0.4,resources/alien4_norm.png,0.6,TRUE,TRUE,2,0.930021168,purple,m,0.1253,alien4,TRUE,3,0.990652941,110,0,0.6,m,0.4843,0,208,208,208,1,0.3,0.7,0.4,0.6,FALSE,,,,,,,,,,,,,,,,,,,,,,,,,,,,,,,,,
GOSH_A11,2023-11-10_10h50.38.031,two_step_task_legacy,2022.2.4,Win32,60.5620155,21,learning,1,resources/alien1_norm.png,0.3,resources/alien2_norm.png,0.7,TRUE,TRUE,3,0.96585046,red,x,0.0336,alien2,TRUE,2,0.498409087,111,1,0.7,m,1.0383,0,209,209,209,1,0.3,0.7,0.4,0.6,FALSE,,,,,,,,,,,,,,,,,,,,,,,,,,,,,,,,,
GOSH_A11,2023-11-10_10h50.38.031,two_step_task_legacy,2022.2.4,Win32,60.5620155,21,learning,0,resources/alien1_norm.png,0.3,resources/alien2_norm.png,0.7,TRUE,TRUE,3,0.198815194,red,m,0.3145,alien2,TRUE,2,0.37702646,112,1,0.7,m,0.967,0,210,210,210,1,0.3,0.7,0.4,0.6,FALSE,,,,,,,,,,,,,,,,,,,,,,,,,,,,,,,,,
GOSH_A11,2023-11-10_10h50.38.031,two_step_task_legacy,2022.2.4,Win32,60.5620155,21,learning,1,resources/alien3_norm.png,0.4,resources/alien4_norm.png,0.6,TRUE,TRUE,2,0.992460689,purple,m,0.3499,alien3,TRUE,2,0.003251269,113,1,0.4,x,0.4992,0,211,211,211,1,0.3,0.7,0.4,0.6,FALSE,,,,,,,,,,,,,,,,,,,,,,,,,,,,,,,,,
GOSH_A11,2023-11-10_10h50.38.031,two_step_task_legacy,2022.2.4,Win32,60.5620155,21,learning,0,resources/alien3_norm.png,0.4,resources/alien4_norm.png,0.6,TRUE,TRUE,2,0.525399264,purple,x,0.4334,alien3,TRUE,2,0.367115838,114,1,0.4,x,0.5897,0,212,212,212,1,0.3,0.7,0.4,0.6,FALSE,,,,,,,,,,,,,,,,,,,,,,,,,,,,,,,,,
GOSH_A11,2023-11-10_10h50.38.031,two_step_task_legacy,2022.2.4,Win32,60.5620155,21,learning,0,resources/alien3_norm.png,0.4,resources/alien4_norm.png,0.6,TRUE,TRUE,2,0.607436449,purple,x,1.118,alien3,TRUE,3,0.633430885,114,0,0.4,x,0.6761,0,213,213,213,1,0.3,0.7,0.4,0.6,FALSE,,,,,,,,,,,,,,,,,,,,,,,,,,,,,,,,,
GOSH_A11,2023-11-10_10h50.38.031,two_step_task_legacy,2022.2.4,Win32,60.5620155,21,learning,1,resources/alien3_norm.png,0.4,resources/alien4_norm.png,0.6,TRUE,TRUE,2,0.963856436,purple,m,0.2618,alien4,TRUE,2,0.503555278,115,1,0.6,m,0.7456,0,214,214,214,1,0.3,0.7,0.4,0.6,FALSE,,,,,,,,,,,,,,,,,,,,,,,,,,,,,,,,,
GOSH_A11,2023-11-10_10h50.38.031,two_step_task_legacy,2022.2.4,Win32,60.5620155,21,learning,0,resources/alien2_norm.png,0.7,resources/alien1_norm.png,0.3,TRUE,TRUE,3,0.398454793,red,m,0.1672,alien1,TRUE,3,0.860325245,115,0,0.3,m,0.6441,0,215,215,215,1,0.3,0.7,0.4,0.6,TRUE,,,,,,,,,,,,,,,,,,,,,,,,,,,,,,,,,
GOSH_A11,2023-11-10_10h50.38.031,two_step_task_legacy,2022.2.4,Win32,60.5620155,21,learning,0,resources/alien2_norm.png,0.7,resources/alien1_norm.png,0.3,TRUE,TRUE,3,0.09002944,red,m,0.0808,alien2,TRUE,2,0.114896516,116,1,0.7,x,0.5952,0,216,216,216,1,0.3,0.7,0.4,0.6,TRUE,,,,,,,,,,,,,,,,,,,,,,,,,,,,,,,,,
GOSH_A11,2023-11-10_10h50.38.031,two_step_task_legacy,2022.2.4,Win32,60.5620155,21,learning,0,resources/alien4_norm.png,0.6,resources/alien3_norm.png,0.4,TRUE,TRUE,2,0.637023885,purple,x,0.2373,alien4,TRUE,2,0.05372473,117,1,0.6,x,0.4656,0,217,217,217,1,0.3,0.7,0.4,0.6,TRUE,,,,,,,,,,,,,,,,,,,,,,,,,,,,,,,,,
GOSH_A11,2023-11-10_10h50.38.031,two_step_task_legacy,2022.2.4,Win32,60.5620155,21,learning,0,resources/alien2_norm.png,0.7,resources/alien1_norm.png,0.3,TRUE,TRUE,3,0.56422916,red,m,0.2127,alien2,TRUE,2,0.267454726,118,1,0.7,x,0.6105,0,218,218,218,1,0.3,0.7,0.4,0.6,TRUE,,,,,,,,,,,,,,,,,,,,,,,,,,,,,,,,,
GOSH_A11,2023-11-10_10h50.38.031,two_step_task_legacy,2022.2.4,Win32,60.5620155,21,learning,0,resources/alien4_norm.png,0.6,resources/alien3_norm.png,0.4,TRUE,TRUE,2,0.552411359,purple,x,0.1291,alien4,TRUE,2,0.366039226,119,1,0.6,x,1.1761,0,219,219,219,1,0.3,0.7,0.4,0.6,TRUE,,,,,,,,,,,,,,,,,,,,,,,,,,,,,,,,,
GOSH_A11,2023-11-10_10h50.38.031,two_step_task_legacy,2022.2.4,Win32,60.5620155,21,learning,0,resources/alien2_norm.png,0.7,resources/alien1_norm.png,0.3,TRUE,TRUE,3,0.353787367,red,m,0.0374,alien2,TRUE,2,0.164055727,120,1,0.7,x,0.8637,0,220,220,220,1,0.3,0.7,0.4,0.6,TRUE,,,,,,,,,,,,,,,,,,,,,,,,,,,,,,,,,
GOSH_A11,2023-11-10_10h50.38.031,two_step_task_legacy,2022.2.4,Win32,60.5620155,21,learning,1,resources/alien1_norm.png,0.3,resources/alien2_norm.png,0.7,TRUE,TRUE,3,0.906994177,red,x,0.0173,alien2,TRUE,2,0.533590232,121,1,0.7,m,0.5779,0,221,221,221,1,0.3,0.7,0.4,0.6,FALSE,,,,,,,,,,,,,,,,,,,,,,,,,,,,,,,,,
GOSH_A11,2023-11-10_10h50.38.031,two_step_task_legacy,2022.2.4,Win32,60.5620155,21,learning,0,resources/alien3_norm.png,0.4,resources/alien4_norm.png,0.6,TRUE,TRUE,2,0.311572812,purple,x,0.4843,alien4,TRUE,3,0.745126304,121,0,0.6,m,0.7004,0,222,222,222,1,0.3,0.7,0.4,0.6,FALSE,,,,,,,,,,,,,,,,,,,,,,,,,,,,,,,,,
GOSH_A11,2023-11-10_10h50.38.031,two_step_task_legacy,2022.2.4,Win32,60.5620155,21,learning,0,resources/alien3_norm.png,0.4,resources/alien4_norm.png,0.6,TRUE,TRUE,2,0.058303952,purple,x,0.4176,alien4,TRUE,3,0.969577909,121,0,0.6,m,0.3231,0,223,223,223,1,0.3,0.7,0.4,0.6,FALSE,,,,,,,,,,,,,,,,,,,,,,,,,,,,,,,,,
GOSH_A11,2023-11-10_10h50.38.031,two_step_task_legacy,2022.2.4,Win32,60.5620155,21,learning,0,resources/alien3_norm.png,0.4,resources/alien4_norm.png,0.6,TRUE,TRUE,2,0.439798949,purple,x,0.356,alien4,TRUE,3,0.992911632,121,0,0.6,m,0.134,0,224,224,224,1,0.3,0.7,0.4,0.6,FALSE,,,,,,,,,,,,,,,,,,,,,,,,,,,,,,,,,
GOSH_A11,2023-11-10_10h50.38.031,two_step_task_legacy,2022.2.4,Win32,60.5620155,21,learning,0,resources/alien4_norm.png,0.6,resources/alien3_norm.png,0.4,TRUE,TRUE,2,0.246026717,purple,x,0.1276,alien3,TRUE,3,0.669446757,121,0,0.4,m,0.501,0,225,225,225,1,0.3,0.7,0.4,0.6,TRUE,,,,,,,,,,,,,,,,,,,,,,,,,,,,,,,,,
GOSH_A11,2023-11-10_10h50.38.031,two_step_task_legacy,2022.2.4,Win32,60.5620155,21,learning,1,resources/alien2_norm.png,0.7,resources/alien1_norm.png,0.3,TRUE,TRUE,3,0.956025169,red,x,0.1505,alien1,TRUE,2,0.035680692,122,1,0.3,m,0.0661,0,226,226,226,1,0.3,0.7,0.4,0.6,TRUE,,,,,,,,,,,,,,,,,,,,,,,,,,,,,,,,,
GOSH_A11,2023-11-10_10h50.38.031,two_step_task_legacy,2022.2.4,Win32,60.5620155,21,learning,0,resources/alien2_norm.png,0.7,resources/alien1_norm.png,0.3,TRUE,TRUE,3,0.277289597,red,m,0.6942,alien1,TRUE,3,0.52293322,122,0,0.3,m,0.4509,0,227,227,227,1,0.3,0.7,0.4,0.6,TRUE,,,,,,,,,,,,,,,,,,,,,,,,,,,,,,,,,
GOSH_A11,2023-11-10_10h50.38.031,two_step_task_legacy,2022.2.4,Win32,60.5620155,21,learning,0,resources/alien2_norm.png,0.7,resources/alien1_norm.png,0.3,TRUE,TRUE,3,0.225056765,red,m,0.1496,alien2,TRUE,3,0.82626801,122,0,0.7,x,0.1532,0,228,228,228,1,0.3,0.7,0.4,0.6,TRUE,,,,,,,,,,,,,,,,,,,,,,,,,,,,,,,,,
GOSH_A11,2023-11-10_10h50.38.031,two_step_task_legacy,2022.2.4,Win32,60.5620155,21,learning,0,resources/alien2_norm.png,0.7,resources/alien1_norm.png,0.3,TRUE,TRUE,3,0.255533537,red,m,0.0989,alien1,TRUE,3,0.712409156,122,0,0.3,m,0.494,0,229,229,229,1,0.3,0.7,0.4,0.6,TRUE,,,,,,,,,,,,,,,,,,,,,,,,,,,,,,,,,
GOSH_A11,2023-11-10_10h50.38.031,two_step_task_legacy,2022.2.4,Win32,60.5620155,21,learning,0,resources/alien1_norm.png,0.3,resources/alien2_norm.png,0.7,TRUE,TRUE,3,0.621380854,red,m,0.1941,alien2,TRUE,2,0.694458198,123,1,0.7,m,0.6635,0,230,230,230,1,0.3,0.7,0.4,0.6,FALSE,,,,,,,,,,,,,,,,,,,,,,,,,,,,,,,,,
GOSH_A11,2023-11-10_10h50.38.031,two_step_task_legacy,2022.2.4,Win32,60.5620155,21,learning,1,resources/alien1_norm.png,0.3,resources/alien2_norm.png,0.7,TRUE,TRUE,3,0.936472268,red,x,0.4501,alien1,TRUE,3,0.590685223,123,0,0.3,x,0.3535,0,231,231,231,1,0.3,0.7,0.4,0.6,FALSE,,,,,,,,,,,,,,,,,,,,,,,,,,,,,,,,,
GOSH_A11,2023-11-10_10h50.38.031,two_step_task_legacy,2022.2.4,Win32,60.5620155,21,learning,0,resources/alien1_norm.png,0.3,resources/alien2_norm.png,0.7,TRUE,TRUE,3,0.576241126,red,m,0.2824,alien2,TRUE,2,0.451384123,124,1,0.7,m,0.4871,0,232,232,232,1,0.3,0.7,0.4,0.6,FALSE,,,,,,,,,,,,,,,,,,,,,,,,,,,,,,,,,
GOSH_A11,2023-11-10_10h50.38.031,two_step_task_legacy,2022.2.4,Win32,60.5620155,21,learning,0,resources/alien4_norm.png,0.6,resources/alien3_norm.png,0.4,TRUE,TRUE,2,0.277360398,purple,x,0.367,alien4,TRUE,2,0.111823697,125,1,0.6,x,0.6164,0,233,233,233,1,0.3,0.7,0.4,0.6,TRUE,,,,,,,,,,,,,,,,,,,,,,,,,,,,,,,,,
GOSH_A11,2023-11-10_10h50.38.031,two_step_task_legacy,2022.2.4,Win32,60.5620155,21,learning,0,resources/alien2_norm.png,0.7,resources/alien1_norm.png,0.3,TRUE,TRUE,3,0.275915398,red,m,0.3646,alien2,TRUE,2,0.325181608,126,1,0.7,x,1.0226,0,234,234,234,1,0.3,0.7,0.4,0.6,TRUE,,,,,,,,,,,,,,,,,,,,,,,,,,,,,,,,,
GOSH_A11,2023-11-10_10h50.38.031,two_step_task_legacy,2022.2.4,Win32,60.5620155,21,learning,0,resources/alien3_norm.png,0.4,resources/alien4_norm.png,0.6,TRUE,TRUE,2,0.254442612,purple,x,0.1586,alien4,TRUE,2,0.598823731,127,1,0.6,m,0.6253,0,235,235,235,1,0.3,0.7,0.4,0.6,FALSE,,,,,,,,,,,,,,,,,,,,,,,,,,,,,,,,,
GOSH_A11,2023-11-10_10h50.38.031,two_step_task_legacy,2022.2.4,Win32,60.5620155,21,learning,0,resources/alien3_norm.png,0.4,resources/alien4_norm.png,0.6,TRUE,TRUE,2,0.528188154,purple,x,0.8069,alien4,TRUE,2,0.468817997,128,1,0.6,m,0.6297,0,236,236,236,1,0.3,0.7,0.4,0.6,FALSE,,,,,,,,,,,,,,,,,,,,,,,,,,,,,,,,,
GOSH_A11,2023-11-10_10h50.38.031,two_step_task_legacy,2022.2.4,Win32,60.5620155,21,learning,0,resources/alien2_norm.png,0.7,resources/alien1_norm.png,0.3,TRUE,TRUE,3,0.254739731,red,m,0.5315,alien2,TRUE,2,0.0736927,129,1,0.7,x,0.891,0,237,237,237,1,0.3,0.7,0.4,0.6,TRUE,,,,,,,,,,,,,,,,,,,,,,,,,,,,,,,,,
GOSH_A11,2023-11-10_10h50.38.031,two_step_task_legacy,2022.2.4,Win32,60.5620155,21,learning,1,resources/alien3_norm.png,0.4,resources/alien4_norm.png,0.6,TRUE,TRUE,2,0.966270762,purple,m,0.1879,alien4,TRUE,2,0.335910641,130,1,0.6,m,0.3824,0,238,238,238,1,0.3,0.7,0.4,0.6,FALSE,,,,,,,,,,,,,,,,,,,,,,,,,,,,,,,,,
GOSH_A11,2023-11-10_10h50.38.031,two_step_task_legacy,2022.2.4,Win32,60.5620155,21,learning,1,resources/alien1_norm.png,0.3,resources/alien2_norm.png,0.7,TRUE,TRUE,3,0.911679065,red,x,0.2343,alien2,TRUE,2,0.464803671,131,1,0.7,m,0.5864,0,239,239,239,1,0.3,0.7,0.4,0.6,FALSE,,,,,,,,,,,,,,,,,,,,,,,,,,,,,,,,,
GOSH_A11,2023-11-10_10h50.38.031,two_step_task_legacy,2022.2.4,Win32,60.5620155,21,learning,1,resources/alien1_norm.png,0.3,resources/alien2_norm.png,0.7,TRUE,TRUE,3,0.792424599,red,x,0.4313,alien2,TRUE,3,0.897386593,131,0,0.7,m,0.6676,0,240,240,240,1,0.3,0.7,0.4,0.6,FALSE,,,,,,,,,,,,,,,,,,,,,,,,,,,,,,,,,
GOSH_A11,2023-11-10_10h50.38.031,two_step_task_legacy,2022.2.4,Win32,60.5620155,21,learning,0,resources/alien4_norm.png,0.6,resources/alien3_norm.png,0.4,TRUE,TRUE,2,0.414552482,purple,x,0.5712,alien4,TRUE,2,0.229706372,132,1,0.6,x,0.4157,0,241,241,241,1,0.3,0.7,0.4,0.6,TRUE,,,,,,,,,,,,,,,,,,,,,,,,,,,,,,,,,
GOSH_A11,2023-11-10_10h50.38.031,two_step_task_legacy,2022.2.4,Win32,60.5620155,21,learning,1,resources/alien1_norm.png,0.3,resources/alien2_norm.png,0.7,TRUE,TRUE,3,0.958131152,red,x,0.316,alien1,TRUE,3,0.682339952,132,0,0.3,x,0.8391,0,242,242,242,1,0.3,0.7,0.4,0.6,FALSE,,,,,,,,,,,,,,,,,,,,,,,,,,,,,,,,,
GOSH_A11,2023-11-10_10h50.38.031,two_step_task_legacy,2022.2.4,Win32,60.5620155,21,learning,1,resources/alien1_norm.png,0.3,resources/alien2_norm.png,0.7,TRUE,TRUE,3,0.815006559,red,x,0.3874,alien1,TRUE,3,0.959790772,132,0,0.3,x,0.6176,0,243,243,243,1,0.3,0.7,0.4,0.6,FALSE,,,,,,,,,,,,,,,,,,,,,,,,,,,,,,,,,
GOSH_A11,2023-11-10_10h50.38.031,two_step_task_legacy,2022.2.4,Win32,60.5620155,21,learning,0,resources/alien2_norm.png,0.7,resources/alien1_norm.png,0.3,TRUE,TRUE,3,0.18258894,red,m,0.0531,alien2,TRUE,2,0.552229564,133,1,0.7,x,0.6354,0,244,244,244,1,0.3,0.7,0.4,0.6,TRUE,,,,,,,,,,,,,,,,,,,,,,,,,,,,,,,,,
GOSH_A11,2023-11-10_10h50.38.031,two_step_task_legacy,2022.2.4,Win32,60.5620155,21,learning,1,resources/alien3_norm.png,0.4,resources/alien4_norm.png,0.6,TRUE,TRUE,2,0.875885637,purple,m,0.2147,alien4,TRUE,2,0.360260986,134,1,0.6,m,0.4745,0,245,245,245,1,0.3,0.7,0.4,0.6,FALSE,,,,,,,,,,,,,,,,,,,,,,,,,,,,,,,,,
GOSH_A11,2023-11-10_10h50.38.031,two_step_task_legacy,2022.2.4,Win32,60.5620155,21,learning,0,resources/alien1_norm.png,0.3,resources/alien2_norm.png,0.7,TRUE,TRUE,3,0.070257864,red,m,0.0251,alien2,TRUE,2,0.378842256,135,1,0.7,m,0.566,0,246,246,246,1,0.3,0.7,0.4,0.6,FALSE,,,,,,,,,,,,,,,,,,,,,,,,,,,,,,,,,
GOSH_A11,2023-11-10_10h50.38.031,two_step_task_legacy,2022.2.4,Win32,60.5620155,21,learning,0,resources/alien2_norm.png,0.7,resources/alien1_norm.png,0.3,TRUE,TRUE,3,0.004531793,red,m,0.1216,alien2,TRUE,2,0.644511911,136,1,0.7,x,0.4939,0,247,247,247,1,0.3,0.7,0.4,0.6,TRUE,,,,,,,,,,,,,,,,,,,,,,,,,,,,,,,,,
GOSH_A11,2023-11-10_10h50.38.031,two_step_task_legacy,2022.2.4,Win32,60.5620155,21,learning,0,resources/alien1_norm.png,0.3,resources/alien2_norm.png,0.7,TRUE,TRUE,3,0.619609026,red,m,0.4166,alien2,TRUE,2,0.030462651,137,1,0.7,m,0.5948,0,248,248,248,1,0.3,0.7,0.4,0.6,FALSE,,,,,,,,,,,,,,,,,,,,,,,,,,,,,,,,,
GOSH_A11,2023-11-10_10h50.38.031,two_step_task_legacy,2022.2.4,Win32,60.5620155,21,learning,0,resources/alien4_norm.png,0.6,resources/alien3_norm.png,0.4,TRUE,TRUE,2,0.647692351,purple,x,0.164,alien4,TRUE,3,0.895468864,137,0,0.6,x,0.4333,0,249,249,249,1,0.3,0.7,0.4,0.6,TRUE,,,,,,,,,,,,,,,,,,,,,,,,,,,,,,,,,
GOSH_A11,2023-11-10_10h50.38.031,two_step_task_legacy,2022.2.4,Win32,60.5620155,21,learning,0,resources/alien4_norm.png,0.6,resources/alien3_norm.png,0.4,TRUE,TRUE,2,0.411371608,purple,x,0.0517,alien3,TRUE,3,0.959532318,137,0,0.4,m,0.729,0,250,250,250,1,0.3,0.7,0.4,0.6,TRUE,,,,,,,,,,,,,,,,,,,,,,,,,,,,,,,,,
GOSH_A11,2023-11-10_10h50.38.031,two_step_task_legacy,2022.2.4,Win32,60.5620155,21,learning,0,resources/alien4_norm.png,0.6,resources/alien3_norm.png,0.4,TRUE,TRUE,2,0.393770453,purple,x,0.3116,alien3,TRUE,3,0.444754944,137,0,0.4,m,0.7374,0,251,251,251,1,0.3,0.7,0.4,0.6,TRUE,,,,,,,,,,,,,,,,,,,,,,,,,,,,,,,,,
GOSH_A11,2023-11-10_10h50.38.031,two_step_task_legacy,2022.2.4,Win32,60.5620155,21,learning,0,resources/alien3_norm.png,0.4,resources/alien4_norm.png,0.6,TRUE,TRUE,2,0.373440658,purple,x,0.0773,alien4,TRUE,2,0.504526697,138,1,0.6,m,0.6706,0,252,252,252,1,0.3,0.7,0.4,0.6,FALSE,,,,,,,,,,,,,,,,,,,,,,,,,,,,,,,,,
GOSH_A11,2023-11-10_10h50.38.031,two_step_task_legacy,2022.2.4,Win32,60.5620155,21,learning,1,resources/alien4_norm.png,0.6,resources/alien3_norm.png,0.4,TRUE,TRUE,2,0.960115811,purple,m,0.8072,alien4,TRUE,3,0.868004521,138,0,0.6,x,0.9351,0,253,253,253,1,0.3,0.7,0.4,0.6,TRUE,,,,,,,,,,,,,,,,,,,,,,,,,,,,,,,,,
GOSH_A11,2023-11-10_10h50.38.031,two_step_task_legacy,2022.2.4,Win32,60.5620155,21,learning,1,resources/alien3_norm.png,0.4,resources/alien4_norm.png,0.6,TRUE,TRUE,2,0.875696873,purple,m,0.301,alien3,TRUE,2,0.098401684,139,1,0.4,x,0.7041,0,254,254,254,1,0.3,0.7,0.4,0.6,FALSE,,,,,,,,,,,,,,,,,,,,,,,,,,,,,,,,,
GOSH_A11,2023-11-10_10h50.38.031,two_step_task_legacy,2022.2.4,Win32,60.5620155,21,learning,0,resources/alien2_norm.png,0.7,resources/alien1_norm.png,0.3,TRUE,TRUE,3,0.628798765,red,m,0.0897,alien1,TRUE,3,0.42815609,139,0,0.3,m,0.5756,0,255,255,255,1,0.3,0.7,0.4,0.6,TRUE,,,,,,,,,,,,,,,,,,,,,,,,,,,,,,,,,
GOSH_A11,2023-11-10_10h50.38.031,two_step_task_legacy,2022.2.4,Win32,60.5620155,21,learning,0,resources/alien1_norm.png,0.3,resources/alien2_norm.png,0.7,TRUE,TRUE,3,0.585417679,red,m,0.1505,alien2,TRUE,2,0.599788592,140,1,0.7,m,0.6522,0,256,256,256,1,0.3,0.7,0.4,0.6,FALSE,,,,,,,,,,,,,,,,,,,,,,,,,,,,,,,,,
GOSH_A11,2023-11-10_10h50.38.031,two_step_task_legacy,2022.2.4,Win32,60.5620155,21,learning,1,resources/alien3_norm.png,0.4,resources/alien4_norm.png,0.6,TRUE,TRUE,2,0.983338948,purple,m,0.4105,alien3,TRUE,3,0.743524058,140,0,0.4,x,0.9561,0,257,257,257,1,0.3,0.7,0.4,0.6,FALSE,,,,,,,,,,,,,,,,,,,,,,,,,,,,,,,,,
GOSH_A11,2023-11-10_10h50.38.031,two_step_task_legacy,2022.2.4,Win32,60.5620155,21,learning,1,resources/alien3_norm.png,0.4,resources/alien4_norm.png,0.6,TRUE,TRUE,2,0.966979229,purple,m,0.2207,alien4,TRUE,3,0.672479856,140,0,0.6,m,0.9013,0,258,258,258,1,0.3,0.7,0.4,0.6,FALSE,,,,,,,,,,,,,,,,,,,,,,,,,,,,,,,,,
GOSH_A11,2023-11-10_10h50.38.031,two_step_task_legacy,2022.2.4,Win32,60.5620155,21,learning,0,resources/alien1_norm.png,0.3,resources/alien2_norm.png,0.7,TRUE,TRUE,3,0.59675798,red,m,0.0782,alien2,TRUE,3,0.886097293,140,0,0.7,m,0.35,0,259,259,259,1,0.3,0.7,0.4,0.6,FALSE,,,,,,,,,,,,,,,,,,,,,,,,,,,,,,,,,
GOSH_A11,2023-11-10_10h50.38.031,two_step_task_legacy,2022.2.4,Win32,60.5620155,21,learning,0,resources/alien2_norm.png,0.7,resources/alien1_norm.png,0.3,TRUE,TRUE,3,0.469722153,red,m,0.2856,alien1,TRUE,3,0.512272489,140,0,0.3,m,0.6505,0,260,260,260,1,0.3,0.7,0.4,0.6,TRUE,,,,,,,,,,,,,,,,,,,,,,,,,,,,,,,,,
GOSH_A11,2023-11-10_10h50.38.031,two_step_task_legacy,2022.2.4,Win32,60.5620155,21,learning,0,resources/alien1_norm.png,0.3,resources/alien2_norm.png,0.7,TRUE,TRUE,3,0.232356399,red,m,0.0331,alien1,TRUE,2,0.087237439,141,1,0.3,x,0.4126,0,261,261,261,1,0.3,0.7,0.4,0.6,FALSE,,,,,,,,,,,,,,,,,,,,,,,,,,,,,,,,,
GOSH_A11,2023-11-10_10h50.38.031,two_step_task_legacy,2022.2.4,Win32,60.5620155,21,learning,1,resources/alien3_norm.png,0.4,resources/alien4_norm.png,0.6,TRUE,TRUE,2,0.706718516,purple,m,0.2689,alien3,TRUE,2,0.35987997,142,1,0.4,x,0.712,0,262,262,262,1,0.3,0.7,0.4,0.6,FALSE,,,,,,,,,,,,,,,,,,,,,,,,,,,,,,,,,
GOSH_A11,2023-11-10_10h50.38.031,two_step_task_legacy,2022.2.4,Win32,60.5620155,21,learning,0,resources/alien4_norm.png,0.6,resources/alien3_norm.png,0.4,TRUE,TRUE,2,0.618431743,purple,x,0.3339,alien3,TRUE,3,0.81129933,142,0,0.4,m,1.0386,0,263,263,263,1,0.3,0.7,0.4,0.6,TRUE,,,,,,,,,,,,,,,,,,,,,,,,,,,,,,,,,
GOSH_A11,2023-11-10_10h50.38.031,two_step_task_legacy,2022.2.4,Win32,60.5620155,21,learning,1,resources/alien3_norm.png,0.4,resources/alien4_norm.png,0.6,TRUE,TRUE,2,0.797322347,purple,m,0.5834,alien3,TRUE,2,0.312817851,143,1,0.4,x,0.6465,0,264,264,264,1,0.3,0.7,0.4,0.6,FALSE,,,,,,,,,,,,,,,,,,,,,,,,,,,,,,,,,
GOSH_A11,2023-11-10_10h50.38.031,two_step_task_legacy,2022.2.4,Win32,60.5620155,21,learning,0,resources/alien1_norm.png,0.3,resources/alien2_norm.png,0.7,TRUE,TRUE,3,0.169475879,red,m,0.3314,alien1,TRUE,3,0.362574596,143,0,0.3,x,0.6535,0,265,265,265,1,0.3,0.7,0.4,0.6,FALSE,,,,,,,,,,,,,,,,,,,,,,,,,,,,,,,,,
GOSH_A11,2023-11-10_10h50.38.031,two_step_task_legacy,2022.2.4,Win32,60.5620155,21,learning,0,resources/alien3_norm.png,0.4,resources/alien4_norm.png,0.6,TRUE,TRUE,2,0.559697267,purple,x,1.1047,alien3,TRUE,2,0.270921062,144,1,0.4,x,0.5553,0,266,266,266,1,0.3,0.7,0.4,0.6,FALSE,,,,,,,,,,,,,,,,,,,,,,,,,,,,,,,,,
GOSH_A11,2023-11-10_10h50.38.031,two_step_task_legacy,2022.2.4,Win32,60.5620155,21,learning,1,resources/alien1_norm.png,0.3,resources/alien2_norm.png,0.7,TRUE,TRUE,3,0.864726077,red,x,0.4549,alien2,TRUE,2,0.613605382,145,1,0.7,m,1.4892,0,267,267,267,1,0.3,0.7,0.4,0.6,FALSE,,,,,,,,,,,,,,,,,,,,,,,,,,,,,,,,,
GOSH_A11,2023-11-10_10h50.38.031,two_step_task_legacy,2022.2.4,Win32,60.5620155,21,learning,0,resources/alien1_norm.png,0.3,resources/alien2_norm.png,0.7,TRUE,TRUE,3,0.116188451,red,m,0.2747,alien2,TRUE,2,0.129206614,146,1,0.7,m,0.5096,0,268,268,268,1,0.3,0.7,0.4,0.6,FALSE,,,,,,,,,,,,,,,,,,,,,,,,,,,,,,,,,
GOSH_A11,2023-11-10_10h50.38.031,two_step_task_legacy,2022.2.4,Win32,60.5620155,21,learning,0,resources/alien4_norm.png,0.6,resources/alien3_norm.png,0.4,TRUE,TRUE,2,0.304520898,purple,x,0.225,alien3,TRUE,3,0.559435593,146,0,0.4,m,0.6551,0,269,269,269,1,0.3,0.7,0.4,0.6,TRUE,,,,,,,,,,,,,,,,,,,,,,,,,,,,,,,,,
GOSH_A11,2023-11-10_10h50.38.031,two_step_task_legacy,2022.2.4,Win32,60.5620155,21,learning,0,resources/alien4_norm.png,0.6,resources/alien3_norm.png,0.4,TRUE,TRUE,2,0.070925214,purple,x,0.35,alien4,TRUE,3,0.851728592,146,0,0.6,x,0.5626,0,270,270,270,1,0.3,0.7,0.4,0.6,TRUE,,,,,,,,,,,,,,,,,,,,,,,,,,,,,,,,,
GOSH_A11,2023-11-10_10h50.38.031,two_step_task_legacy,2022.2.4,Win32,60.5620155,21,learning,1,resources/alien3_norm.png,0.4,resources/alien4_norm.png,0.6,TRUE,TRUE,2,0.702368198,purple,m,0.2226,alien4,TRUE,2,0.470549949,147,1,0.6,m,0.6792,0,271,271,271,1,0.3,0.7,0.4,0.6,FALSE,,,,,,,,,,,,,,,,,,,,,,,,,,,,,,,,,
GOSH_A11,2023-11-10_10h50.38.031,two_step_task_legacy,2022.2.4,Win32,60.5620155,21,learning,0,resources/alien1_norm.png,0.3,resources/alien2_norm.png,0.7,TRUE,TRUE,3,0.485760655,red,m,0.3,alien1,TRUE,3,0.640278775,147,0,0.3,x,0.2664,0,272,272,272,1,0.3,0.7,0.4,0.6,FALSE,,,,,,,,,,,,,,,,,,,,,,,,,,,,,,,,,
GOSH_A11,2023-11-10_10h50.38.031,two_step_task_legacy,2022.2.4,Win32,60.5620155,21,learning,1,resources/alien3_norm.png,0.4,resources/alien4_norm.png,0.6,TRUE,TRUE,2,0.82059837,purple,m,0.4677,alien4,TRUE,2,0.170636934,148,1,0.6,m,0.27,0,273,273,273,1,0.3,0.7,0.4,0.6,FALSE,,,,,,,,,,,,,,,,,,,,,,,,,,,,,,,,,
GOSH_A11,2023-11-10_10h50.38.031,two_step_task_legacy,2022.2.4,Win32,60.5620155,21,learning,0,resources/alien2_norm.png,0.7,resources/alien1_norm.png,0.3,TRUE,TRUE,3,0.122346747,red,m,0.3165,alien2,TRUE,2,0.243313675,149,1,0.7,x,0.4895,0,274,274,274,1,0.3,0.7,0.4,0.6,TRUE,,,,,,,,,,,,,,,,,,,,,,,,,,,,,,,,,
GOSH_A11,2023-11-10_10h50.38.031,two_step_task_legacy,2022.2.4,Win32,60.5620155,21,learning,0,resources/alien1_norm.png,0.3,resources/alien2_norm.png,0.7,TRUE,TRUE,3,0.391288313,red,m,0.2877,alien2,TRUE,2,0.509421807,150,1,0.7,m,0.553,0,275,275,275,1,0.3,0.7,0.4,0.6,FALSE,,,,,,,,,,,,,,,,,,,,,,,,,,,,,,,,,
GOSH_A11,2023-11-10_10h50.38.031,two_step_task_legacy,2022.2.4,Win32,60.5620155,21,learning,0,resources/alien3_norm.png,0.4,resources/alien4_norm.png,0.6,TRUE,TRUE,2,0.066529032,purple,x,0.0171,alien3,TRUE,3,0.47978722,150,0,0.4,x,0.4865,0,276,276,276,1,0.3,0.7,0.4,0.6,FALSE,,,,,,,,,,,,,,,,,,,,,,,,,,,,,,,,,
GOSH_A11,2023-11-10_10h50.38.031,two_step_task_legacy,2022.2.4,Win32,60.5620155,21,learning,1,resources/alien1_norm.png,0.3,resources/alien2_norm.png,0.7,TRUE,TRUE,3,0.974771806,red,x,0.2833,alien1,TRUE,3,0.647263664,150,0,0.3,x,0.7943,0,277,277,277,1,0.3,0.7,0.4,0.6,FALSE,,,,,,,,,,,,,,,,,,,,,,,,,,,,,,,,,
GOSH_A11,2023-11-10_10h50.38.031,two_step_task_legacy,2022.2.4,Win32,60.5620155,21,learning,0,resources/alien3_norm.png,0.4,resources/alien4_norm.png,0.6,TRUE,TRUE,2,0.676342123,purple,x,0.7343,alien4,TRUE,3,0.826488954,150,0,0.6,m,0.5943,0,278,278,278,1,0.3,0.7,0.4,0.6,FALSE,,,,,,,,,,,,,,,,,,,,,,,,,,,,,,,,,
GOSH_A11,2023-11-10_10h50.38.031,two_step_task_legacy,2022.2.4,Win32,60.5620155,21,learning,1,resources/alien1_norm.png,0.3,resources/alien2_norm.png,0.7,TRUE,TRUE,3,0.885847522,red,x,0.2772,alien2,TRUE,2,0.597830612,151,1,0.7,m,0.7034,0,279,279,279,1,0.3,0.7,0.4,0.6,FALSE,,,,,,,,,,,,,,,,,,,,,,,,,,,,,,,,,
GOSH_A11,2023-11-10_10h50.38.031,two_step_task_legacy,2022.2.4,Win32,60.5620155,21,learning,1,resources/alien2_norm.png,0.7,resources/alien1_norm.png,0.3,TRUE,TRUE,3,0.77161762,red,x,0.5683,alien2,TRUE,2,0.609651655,152,1,0.7,x,0.755,0,280,280,280,1,0.3,0.7,0.4,0.6,TRUE,,,,,,,,,,,,,,,,,,,,,,,,,,,,,,,,,
GOSH_A11,2023-11-10_10h50.38.031,two_step_task_legacy,2022.2.4,Win32,60.5620155,21,learning,0,resources/alien2_norm.png,0.7,resources/alien1_norm.png,0.3,TRUE,TRUE,3,0.188753297,red,m,0.3331,alien2,TRUE,2,0.388115145,153,1,0.7,x,0.4737,0,281,281,281,1,0.3,0.7,0.4,0.6,TRUE,,,,,,,,,,,,,,,,,,,,,,,,,,,,,,,,,
GOSH_A11,2023-11-10_10h50.38.031,two_step_task_legacy,2022.2.4,Win32,60.5620155,21,learning,0,resources/alien2_norm.png,0.7,resources/alien1_norm.png,0.3,TRUE,TRUE,3,0.151844914,red,m,0.4265,alien2,TRUE,3,0.820434164,153,0,0.7,x,0.4374,0,282,282,282,1,0.3,0.7,0.4,0.6,TRUE,,,,,,,,,,,,,,,,,,,,,,,,,,,,,,,,,
GOSH_A11,2023-11-10_10h50.38.031,two_step_task_legacy,2022.2.4,Win32,60.5620155,21,learning,0,resources/alien2_norm.png,0.7,resources/alien1_norm.png,0.3,TRUE,TRUE,3,0.454071343,red,m,0.2395,alien2,TRUE,2,0.522330897,154,1,0.7,x,0.4188,0,283,283,283,1,0.3,0.7,0.4,0.6,TRUE,,,,,,,,,,,,,,,,,,,,,,,,,,,,,,,,,
GOSH_A11,2023-11-10_10h50.38.031,two_step_task_legacy,2022.2.4,Win32,60.5620155,21,learning,0,resources/alien1_norm.png,0.3,resources/alien2_norm.png,0.7,TRUE,TRUE,3,0.099225868,red,m,0.2377,alien1,TRUE,2,0.239849285,155,1,0.3,x,0.3071,0,284,284,284,1,0.3,0.7,0.4,0.6,FALSE,,,,,,,,,,,,,,,,,,,,,,,,,,,,,,,,,
GOSH_A11,2023-11-10_10h50.38.031,two_step_task_legacy,2022.2.4,Win32,60.5620155,21,learning,0,resources/alien2_norm.png,0.7,resources/alien1_norm.png,0.3,TRUE,TRUE,3,0.531040387,red,m,0.088,alien2,TRUE,2,0.417948462,156,1,0.7,x,0.6836,0,285,285,285,1,0.3,0.7,0.4,0.6,TRUE,,,,,,,,,,,,,,,,,,,,,,,,,,,,,,,,,
GOSH_A11,2023-11-10_10h50.38.031,two_step_task_legacy,2022.2.4,Win32,60.5620155,21,learning,0,resources/alien1_norm.png,0.3,resources/alien2_norm.png,0.7,TRUE,TRUE,3,0.594214255,red,m,0.2123,alien2,TRUE,2,0.532000599,157,1,0.7,m,0.477,0,286,286,286,1,0.3,0.7,0.4,0.6,FALSE,,,,,,,,,,,,,,,,,,,,,,,,,,,,,,,,,
GOSH_A11,2023-11-10_10h50.38.031,two_step_task_legacy,2022.2.4,Win32,60.5620155,21,learning,0,resources/alien3_norm.png,0.4,resources/alien4_norm.png,0.6,TRUE,TRUE,2,0.445415781,purple,x,0.2842,alien4,TRUE,2,0.490164322,158,1,0.6,m,0.5408,0,287,287,287,1,0.3,0.7,0.4,0.6,FALSE,,,,,,,,,,,,,,,,,,,,,,,,,,,,,,,,,
GOSH_A11,2023-11-10_10h50.38.031,two_step_task_legacy,2022.2.4,Win32,60.5620155,21,learning,1,resources/alien4_norm.png,0.6,resources/alien3_norm.png,0.4,TRUE,TRUE,2,0.979965388,purple,m,0.7389,alien3,TRUE,2,0.047202414,159,1,0.4,m,0.6224,0,288,288,288,1,0.3,0.7,0.4,0.6,TRUE,,,,,,,,,,,,,,,,,,,,,,,,,,,,,,,,,
GOSH_A11,2023-11-10_10h50.38.031,two_step_task_legacy,2022.2.4,Win32,60.5620155,21,learning,0,resources/alien4_norm.png,0.6,resources/alien3_norm.png,0.4,TRUE,TRUE,2,0.00671887,purple,x,0.0811,alien4,TRUE,2,0.127695224,160,1,0.6,x,0.762,0,289,289,289,1,0.3,0.7,0.4,0.6,TRUE,,,,,,,,,,,,,,,,,,,,,,,,,,,,,,,,,
