participant,date,expName,psychopyVersion,OS,frameRate,payoff_list,phase,rare_transition,select_sp,show_alien,rocket_trans,rand_sp,planet,key_resp_exp.keys,loop_exp.thisRepN,loop_exp.thisTrialN,loop_exp.thisN,loop_exp.thisIndex,loop_exp.ran,p1,p2,p3,p4,flip_sides,left_alien,left_probabilty,right_alien,right_probabilty,key_resp_exp.rt,chosen_alien,select_alien,transmoney,rand_money,totalgold,trialgain,probs,key_resp_exp_alien.keys,key_resp_exp_alien.rt,static_probability_left,static_probability_right,key_resp_probe.keys,key_resp_probe.rt,accuracy,probe_loop.thisRepN,probe_loop.thisTrialN,probe_loop.thisN,probe_loop.thisIndex,probe_loop.ran,probe_la,probe_ra,key_resp.keys,key_resp.rt,slider.response,slider.rt,post_loop.thisRepN,post_loop.thisTrialN,post_loop.thisN,post_loop.thisIndex,post_loop.ran,text_up,pos_text_up,text_down,pos_img_left_up,left_up_img,right_up_img,left_down_img_1,left_down_img_2,right_down_img_1,right_down_img_2,size,show_slider
GOSH_A12,2023-11-10_12h51.10.671,two_step_task_legacy,2022.2.4,Win32,59.66587112,,,,,,,,,,,,,,,,,,,,,,,,,,,,,,,,,,,,,,,,,,,,,,,,,,,,,,,,,,,,,,,,,,
GOSH_A12,2023-11-10_12h51.10.671,two_step_task_legacy,2022.2.4,Win32,59.66587112,,,,,,,,,,,,,,,,,,,,,,,,,,,,,,,,,,,,,,,,,,,,,,,,,,,,,,,,,,,,,,,,,,
GOSH_A12,2023-11-10_12h51.10.671,two_step_task_legacy,2022.2.4,Win32,59.66587112,,,,,,,,,,,,,,,,,,,,,,,,,,,,,,,,,,,,,,,,,,,,,,,,,,,,,,,,,,,,,,,,,,
GOSH_A12,2023-11-10_12h51.10.671,two_step_task_legacy,2022.2.4,Win32,59.66587112,,,,,,,,,,,,,,,,,,,,,,,,,,,,,,,,,,,,,,,,,,,,,,,,,,,,,,,,,,,,,,,,,,
GOSH_A12,2023-11-10_12h51.10.671,two_step_task_legacy,2022.2.4,Win32,59.66587112,,,,,,,,,,,,,,,,,,,,,,,,,,,,,,,,,,,,,,,,,,,,,,,,,,,,,,,,,,,,,,,,,,
GOSH_A12,2023-11-10_12h51.10.671,two_step_task_legacy,2022.2.4,Win32,59.66587112,,,,,,,,,,,,,,,,,,,,,,,,,,,,,,,,,,,,,,,,,,,,,,,,,,,,,,,,,,,,,,,,,,
GOSH_A12,2023-11-10_12h51.10.671,two_step_task_legacy,2022.2.4,Win32,59.66587112,,,,,,,,,,,,,,,,,,,,,,,,,,,,,,,,,,,,,,,,,,,,,,,,,,,,,,,,,,,,,,,,,,
GOSH_A12,2023-11-10_12h51.10.671,two_step_task_legacy,2022.2.4,Win32,59.66587112,,,,,,,,,,,,,,,,,,,,,,,,,,,,,,,,,,,,,,,,,,,,,,,,,,,,,,,,,,,,,,,,,,
GOSH_A12,2023-11-10_12h51.10.671,two_step_task_legacy,2022.2.4,Win32,59.66587112,,,,,,,,,,,,,,,,,,,,,,,,,,,,,,,,,,,,,,,,,,,,,,,,,,,,,,,,,,,,,,,,,,
GOSH_A12,2023-11-10_12h51.10.671,two_step_task_legacy,2022.2.4,Win32,59.66587112,,,,,,,,,,,,,,,,,,,,,,,,,,,,,,,,,,,,,,,,,,,,,,,,,,,,,,,,,,,,,,,,,,
GOSH_A12,2023-11-10_12h51.10.671,two_step_task_legacy,2022.2.4,Win32,59.66587112,,,,,,,,,,,,,,,,,,,,,,,,,,,,,,,,,,,,,,,,,,,,,,,,,,,,,,,,,,,,,,,,,,
GOSH_A12,2023-11-10_12h51.10.671,two_step_task_legacy,2022.2.4,Win32,59.66587112,2,learning,0,FALSE,FALSE,2,0.610050906,green,,0,0,0,0,1,0.601195094,0.412920416,0.684167385,0.574881385,TRUE,,,,,,,,,,,,,,,,,,,,,,,,,,,,,,,,,,,,,,,,,,,,,,,
GOSH_A12,2023-11-10_12h51.10.671,two_step_task_legacy,2022.2.4,Win32,59.66587112,2,learning,0,TRUE,TRUE,2,0.289204117,purple,x,0,1,1,1,1,0.625745146,0.384635186,0.686024818,0.598570502,TRUE,resources/alien4_norm.png,0.598570502,resources/alien3_norm.png,0.686024818,0.3784,alien3,TRUE,2,0.660981118,1,1,0.686024818,m,0.8908,,,,,,,,,,,,,,,,,,,,,,,,,,,,,,,,,
GOSH_A12,2023-11-10_12h51.10.671,two_step_task_legacy,2022.2.4,Win32,59.66587112,2,learning,0,TRUE,TRUE,2,0.512753055,purple,x,0,2,2,2,1,0.607315968,0.369840214,0.644881976,0.638671366,FALSE,resources/alien3_norm.png,0.644881976,resources/alien4_norm.png,0.638671366,0.4501,alien3,TRUE,2,0.482886949,2,1,0.644881976,x,0.5899,,,,,,,,,,,,,,,,,,,,,,,,,,,,,,,,,
GOSH_A12,2023-11-10_12h51.10.671,two_step_task_legacy,2022.2.4,Win32,59.66587112,2,learning,1,TRUE,TRUE,2,0.751279619,purple,m,0,3,3,3,1,0.553970902,0.370949282,0.634096222,0.581962699,FALSE,resources/alien3_norm.png,0.634096222,resources/alien4_norm.png,0.581962699,0.3628,alien3,TRUE,2,0.531448031,3,1,0.634096222,x,0.5433,,,,,,,,,,,,,,,,,,,,,,,,,,,,,,,,,
GOSH_A12,2023-11-10_12h51.10.671,two_step_task_legacy,2022.2.4,Win32,59.66587112,2,learning,0,TRUE,TRUE,2,0.003456626,purple,x,0,4,4,4,1,0.531032286,0.403833123,0.641581245,0.574748429,TRUE,resources/alien4_norm.png,0.574748429,resources/alien3_norm.png,0.641581245,0.3999,alien3,TRUE,2,0.557278398,4,1,0.641581245,m,0.6042,,,,,,,,,,,,,,,,,,,,,,,,,,,,,,,,,
GOSH_A12,2023-11-10_12h51.10.671,two_step_task_legacy,2022.2.4,Win32,59.66587112,2,learning,1,TRUE,TRUE,3,0.98093682,red,x,0,5,5,5,1,0.567657882,0.413108418,0.653289635,0.5733101,FALSE,resources/alien1_norm.png,0.567657882,resources/alien2_norm.png,0.413108418,0.3405,alien2,TRUE,2,0.177404087,5,1,0.413108418,m,0.9476,,,,,,,,,,,,,,,,,,,,,,,,,,,,,,,,,
GOSH_A12,2023-11-10_12h51.10.671,two_step_task_legacy,2022.2.4,Win32,59.66587112,2,learning,0,TRUE,TRUE,2,0.410188883,purple,x,0,6,6,6,1,0.583224272,0.425080565,0.710266348,0.526958851,TRUE,resources/alien4_norm.png,0.526958851,resources/alien3_norm.png,0.710266348,0.5188,alien3,TRUE,3,0.966142261,5,0,0.710266348,m,0.5494,,,,,,,,,,,,,,,,,,,,,,,,,,,,,,,,,
GOSH_A12,2023-11-10_12h51.10.671,two_step_task_legacy,2022.2.4,Win32,59.66587112,2,learning,0,TRUE,TRUE,2,0.100092474,purple,x,0,7,7,7,1,0.611992163,0.442857993,0.713974974,0.480861246,FALSE,resources/alien3_norm.png,0.713974974,resources/alien4_norm.png,0.480861246,0.329,alien3,TRUE,3,0.897379761,5,0,0.713974974,x,0.5001,,,,,,,,,,,,,,,,,,,,,,,,,,,,,,,,,
GOSH_A12,2023-11-10_12h51.10.671,two_step_task_legacy,2022.2.4,Win32,59.66587112,2,learning,0,TRUE,TRUE,2,0.370160417,purple,x,0,8,8,8,1,0.612740558,0.431833253,0.7109314,0.461218259,FALSE,resources/alien3_norm.png,0.7109314,resources/alien4_norm.png,0.461218259,0.5613,alien3,TRUE,2,0.216236537,6,1,0.7109314,x,0.3464,,,,,,,,,,,,,,,,,,,,,,,,,,,,,,,,,
GOSH_A12,2023-11-10_12h51.10.671,two_step_task_legacy,2022.2.4,Win32,59.66587112,2,learning,0,TRUE,TRUE,2,0.046999263,purple,x,0,9,9,9,1,0.608500544,0.441677248,0.702346871,0.482120856,FALSE,resources/alien3_norm.png,0.702346871,resources/alien4_norm.png,0.482120856,0.5386,alien3,TRUE,2,0.67043347,7,1,0.702346871,x,0.5627,,,,,,,,,,,,,,,,,,,,,,,,,,,,,,,,,
GOSH_A12,2023-11-10_12h51.10.671,two_step_task_legacy,2022.2.4,Win32,59.66587112,2,learning,1,TRUE,TRUE,3,0.760841298,red,x,0,10,10,10,1,0.576141425,0.482625454,0.67633549,0.532346574,TRUE,resources/alien2_norm.png,0.482625454,resources/alien1_norm.png,0.576141425,0.4116,alien2,TRUE,3,0.997530888,7,0,0.482625454,x,1.0392,,,,,,,,,,,,,,,,,,,,,,,,,,,,,,,,,
GOSH_A12,2023-11-10_12h51.10.671,two_step_task_legacy,2022.2.4,Win32,59.66587112,2,learning,0,TRUE,TRUE,2,0.638212397,purple,x,0,11,11,11,1,0.568074544,0.493435168,0.664063745,0.561189193,TRUE,resources/alien4_norm.png,0.561189193,resources/alien3_norm.png,0.664063745,0.3038,alien3,TRUE,2,0.624299617,8,1,0.664063745,m,0.6211,,,,,,,,,,,,,,,,,,,,,,,,,,,,,,,,,
GOSH_A12,2023-11-10_12h51.10.671,two_step_task_legacy,2022.2.4,Win32,59.66587112,2,learning,0,TRUE,TRUE,2,0.531231014,purple,x,0,12,12,12,1,0.580926918,0.510599306,0.672411387,0.548431613,TRUE,resources/alien4_norm.png,0.548431613,resources/alien3_norm.png,0.672411387,0.3665,alien3,TRUE,3,0.747095305,8,0,0.672411387,m,0.4665,,,,,,,,,,,,,,,,,,,,,,,,,,,,,,,,,
GOSH_A12,2023-11-10_12h51.10.671,two_step_task_legacy,2022.2.4,Win32,59.66587112,2,learning,0,TRUE,TRUE,2,0.190998677,purple,x,0,13,13,13,1,0.600410731,0.440226577,0.663587653,0.549136269,FALSE,resources/alien3_norm.png,0.663587653,resources/alien4_norm.png,0.549136269,0.4572,alien3,TRUE,2,0.5272162,9,1,0.663587653,x,0.5514,,,,,,,,,,,,,,,,,,,,,,,,,,,,,,,,,
GOSH_A12,2023-11-10_12h51.10.671,two_step_task_legacy,2022.2.4,Win32,59.66587112,2,learning,0,TRUE,TRUE,2,0.35151612,purple,x,0,14,14,14,1,0.611788063,0.418298082,0.666002255,0.524244528,FALSE,resources/alien3_norm.png,0.666002255,resources/alien4_norm.png,0.524244528,0.595,alien3,TRUE,2,0.301467725,10,1,0.666002255,x,0.4209,,,,,,,,,,,,,,,,,,,,,,,,,,,,,,,,,
GOSH_A12,2023-11-10_12h51.10.671,two_step_task_legacy,2022.2.4,Win32,59.66587112,2,learning,0,TRUE,TRUE,2,0.352191843,purple,x,0,15,15,15,1,0.598923528,0.389234347,0.677601938,0.531921129,FALSE,resources/alien3_norm.png,0.677601938,resources/alien4_norm.png,0.531921129,0.3762,alien3,TRUE,3,0.881726976,10,0,0.677601938,x,0.4508,,,,,,,,,,,,,,,,,,,,,,,,,,,,,,,,,
GOSH_A12,2023-11-10_12h51.10.671,two_step_task_legacy,2022.2.4,Win32,59.66587112,2,learning,0,TRUE,TRUE,2,0.675284158,purple,x,0,16,16,16,1,0.573752737,0.442467063,0.658528817,0.532800124,FALSE,resources/alien3_norm.png,0.658528817,resources/alien4_norm.png,0.532800124,0.3312,alien3,TRUE,3,0.961336938,10,0,0.658528817,x,0.4509,,,,,,,,,,,,,,,,,,,,,,,,,,,,,,,,,
GOSH_A12,2023-11-10_12h51.10.671,two_step_task_legacy,2022.2.4,Win32,59.66587112,2,learning,0,TRUE,TRUE,2,0.146129668,purple,x,0,17,17,17,1,0.566603312,0.428427973,0.631175471,0.552412586,FALSE,resources/alien3_norm.png,0.631175471,resources/alien4_norm.png,0.552412586,0.2398,alien3,TRUE,2,0.615932621,11,1,0.631175471,x,0.4681,,,,,,,,,,,,,,,,,,,,,,,,,,,,,,,,,
GOSH_A12,2023-11-10_12h51.10.671,two_step_task_legacy,2022.2.4,Win32,59.66587112,2,learning,0,TRUE,TRUE,2,0.284138076,purple,x,0,18,18,18,1,0.582114013,0.425646271,0.604740096,0.565590497,FALSE,resources/alien3_norm.png,0.604740096,resources/alien4_norm.png,0.565590497,0.382,alien3,TRUE,2,0.170362591,12,1,0.604740096,x,0.5008,,,,,,,,,,,,,,,,,,,,,,,,,,,,,,,,,
GOSH_A12,2023-11-10_12h51.10.671,two_step_task_legacy,2022.2.4,Win32,59.66587112,2,learning,0,TRUE,TRUE,2,0.661243414,purple,x,0,19,19,19,1,0.561351389,0.373328893,0.572334771,0.567031065,TRUE,resources/alien4_norm.png,0.567031065,resources/alien3_norm.png,0.572334771,0.4199,alien3,TRUE,2,0.130181627,13,1,0.572334771,m,0.5952,,,,,,,,,,,,,,,,,,,,,,,,,,,,,,,,,
GOSH_A12,2023-11-10_12h51.10.671,two_step_task_legacy,2022.2.4,Win32,59.66587112,2,learning,1,TRUE,TRUE,3,0.712566882,red,x,0,20,20,20,1,0.600913787,0.418292814,0.559110428,0.54814434,TRUE,resources/alien2_norm.png,0.418292814,resources/alien1_norm.png,0.600913787,0.5772,alien2,TRUE,2,0.406509518,14,1,0.418292814,x,0.8104,,,,,,,,,,,,,,,,,,,,,,,,,,,,,,,,,
GOSH_A12,2023-11-10_12h51.10.671,two_step_task_legacy,2022.2.4,Win32,59.66587112,2,learning,1,TRUE,TRUE,3,0.814859278,red,x,0,21,21,21,1,0.583272345,0.422500338,0.568809314,0.566532625,TRUE,resources/alien2_norm.png,0.422500338,resources/alien1_norm.png,0.583272345,0.3036,alien2,TRUE,2,0.237565698,15,1,0.422500338,x,0.4704,,,,,,,,,,,,,,,,,,,,,,,,,,,,,,,,,
GOSH_A12,2023-11-10_12h51.10.671,two_step_task_legacy,2022.2.4,Win32,59.66587112,2,learning,0,TRUE,TRUE,2,0.146278356,purple,x,0,22,22,22,1,0.609961034,0.394003844,0.55652811,0.561719482,FALSE,resources/alien3_norm.png,0.55652811,resources/alien4_norm.png,0.561719482,0.3616,alien3,TRUE,3,0.624105635,15,0,0.55652811,x,0.5572,,,,,,,,,,,,,,,,,,,,,,,,,,,,,,,,,
GOSH_A12,2023-11-10_12h51.10.671,two_step_task_legacy,2022.2.4,Win32,59.66587112,2,learning,1,TRUE,TRUE,3,0.84102743,red,x,0,23,23,23,1,0.590272679,0.394651748,0.555724238,0.544931665,TRUE,resources/alien2_norm.png,0.394651748,resources/alien1_norm.png,0.590272679,0.2403,alien2,TRUE,2,0.365414987,16,1,0.394651748,x,0.6264,,,,,,,,,,,,,,,,,,,,,,,,,,,,,,,,,
GOSH_A12,2023-11-10_12h51.10.671,two_step_task_legacy,2022.2.4,Win32,59.66587112,2,learning,1,TRUE,TRUE,3,0.759075795,red,x,0,24,24,24,1,0.605617399,0.431176562,0.576639227,0.55069953,FALSE,resources/alien1_norm.png,0.605617399,resources/alien2_norm.png,0.431176562,0.3279,alien2,TRUE,2,0.168206895,17,1,0.431176562,m,0.6344,,,,,,,,,,,,,,,,,,,,,,,,,,,,,,,,,
GOSH_A12,2023-11-10_12h51.10.671,two_step_task_legacy,2022.2.4,Win32,59.66587112,2,learning,1,TRUE,TRUE,3,0.898544438,red,x,0,25,25,25,1,0.613091185,0.420786543,0.557257773,0.534624757,FALSE,resources/alien1_norm.png,0.613091185,resources/alien2_norm.png,0.420786543,0.4575,alien2,TRUE,3,0.949218898,17,0,0.420786543,m,0.4903,,,,,,,,,,,,,,,,,,,,,,,,,,,,,,,,,
GOSH_A12,2023-11-10_12h51.10.671,two_step_task_legacy,2022.2.4,Win32,59.66587112,2,learning,0,TRUE,TRUE,2,0.603128858,purple,x,0,26,26,26,1,0.595872609,0.450532133,0.576094467,0.545850614,TRUE,resources/alien4_norm.png,0.545850614,resources/alien3_norm.png,0.576094467,0.3001,alien3,TRUE,2,0.225096263,18,1,0.576094467,m,0.4668,,,,,,,,,,,,,,,,,,,,,,,,,,,,,,,,,
GOSH_A12,2023-11-10_12h51.10.671,two_step_task_legacy,2022.2.4,Win32,59.66587112,2,learning,1,TRUE,TRUE,3,0.995321556,red,x,0,27,27,27,1,0.643406653,0.477668773,0.592199407,0.511001288,TRUE,resources/alien2_norm.png,0.477668773,resources/alien1_norm.png,0.643406653,0.2999,alien2,TRUE,2,0.192022558,19,1,0.477668773,x,0.6691,,,,,,,,,,,,,,,,,,,,,,,,,,,,,,,,,
GOSH_A12,2023-11-10_12h51.10.671,two_step_task_legacy,2022.2.4,Win32,59.66587112,2,learning,1,TRUE,TRUE,3,0.886244795,red,x,0,28,28,28,1,0.627060866,0.482589761,0.634639671,0.503306501,TRUE,resources/alien2_norm.png,0.482589761,resources/alien1_norm.png,0.627060866,0.3685,alien2,TRUE,3,0.92944923,19,0,0.482589761,x,0.4276,,,,,,,,,,,,,,,,,,,,,,,,,,,,,,,,,
GOSH_A12,2023-11-10_12h51.10.671,two_step_task_legacy,2022.2.4,Win32,59.66587112,2,learning,0,TRUE,TRUE,2,0.226485516,purple,x,0,29,29,29,1,0.659503493,0.473630358,0.636367601,0.500905699,TRUE,resources/alien4_norm.png,0.500905699,resources/alien3_norm.png,0.636367601,0.2551,alien3,TRUE,2,0.235418189,20,1,0.636367601,m,0.4996,,,,,,,,,,,,,,,,,,,,,,,,,,,,,,,,,
GOSH_A12,2023-11-10_12h51.10.671,two_step_task_legacy,2022.2.4,Win32,59.66587112,2,learning,1,TRUE,TRUE,3,0.838958481,red,x,0,30,30,30,1,0.633289649,0.501315139,0.637914928,0.501224844,FALSE,resources/alien1_norm.png,0.633289649,resources/alien2_norm.png,0.501315139,0.3893,alien2,TRUE,2,0.21858774,21,1,0.501315139,m,0.549,,,,,,,,,,,,,,,,,,,,,,,,,,,,,,,,,
GOSH_A12,2023-11-10_12h51.10.671,two_step_task_legacy,2022.2.4,Win32,59.66587112,2,learning,0,TRUE,TRUE,2,0.462883066,purple,x,0,31,31,31,1,0.601309191,0.486335384,0.634843763,0.49511204,FALSE,resources/alien3_norm.png,0.634843763,resources/alien4_norm.png,0.49511204,0.2852,alien3,TRUE,2,0.408203502,22,1,0.634843763,x,0.4187,,,,,,,,,,,,,,,,,,,,,,,,,,,,,,,,,
GOSH_A12,2023-11-10_12h51.10.671,two_step_task_legacy,2022.2.4,Win32,59.66587112,2,learning,0,TRUE,TRUE,2,0.596506848,purple,x,0,32,32,32,1,0.601010443,0.467762774,0.625739977,0.492316248,FALSE,resources/alien3_norm.png,0.625739977,resources/alien4_norm.png,0.492316248,0.2842,alien3,TRUE,2,0.109917886,23,1,0.625739977,x,0.6668,,,,,,,,,,,,,,,,,,,,,,,,,,,,,,,,,
GOSH_A12,2023-11-10_12h51.10.671,two_step_task_legacy,2022.2.4,Win32,59.66587112,2,learning,1,TRUE,TRUE,3,0.879285025,red,x,0,33,33,33,1,0.622204761,0.465440023,0.615828505,0.545653013,FALSE,resources/alien1_norm.png,0.622204761,resources/alien2_norm.png,0.465440023,0.3262,alien2,TRUE,3,0.990601898,23,0,0.465440023,m,0.4973,,,,,,,,,,,,,,,,,,,,,,,,,,,,,,,,,
GOSH_A12,2023-11-10_12h51.10.671,two_step_task_legacy,2022.2.4,Win32,59.66587112,2,learning,1,TRUE,TRUE,3,0.894048926,red,x,0,34,34,34,1,0.627316779,0.493981228,0.59000377,0.495749277,TRUE,resources/alien2_norm.png,0.493981228,resources/alien1_norm.png,0.627316779,0.2982,alien2,TRUE,3,0.591944642,23,0,0.493981228,x,0.4829,,,,,,,,,,,,,,,,,,,,,,,,,,,,,,,,,
GOSH_A12,2023-11-10_12h51.10.671,two_step_task_legacy,2022.2.4,Win32,59.66587112,2,learning,0,TRUE,TRUE,2,0.178010985,purple,x,0,35,35,35,1,0.598288248,0.477218043,0.553937559,0.524611694,FALSE,resources/alien3_norm.png,0.553937559,resources/alien4_norm.png,0.524611694,0.2331,alien3,TRUE,3,0.898029134,23,0,0.553937559,x,0.3471,,,,,,,,,,,,,,,,,,,,,,,,,,,,,,,,,
GOSH_A12,2023-11-10_12h51.10.671,two_step_task_legacy,2022.2.4,Win32,59.66587112,2,learning,1,TRUE,TRUE,3,0.962354927,red,x,0,36,36,36,1,0.614262045,0.493000476,0.56908871,0.543066073,FALSE,resources/alien1_norm.png,0.614262045,resources/alien2_norm.png,0.493000476,0.2561,alien2,TRUE,3,0.676784008,23,0,0.493000476,m,0.4655,,,,,,,,,,,,,,,,,,,,,,,,,,,,,,,,,
GOSH_A12,2023-11-10_12h51.10.671,two_step_task_legacy,2022.2.4,Win32,59.66587112,2,learning,1,TRUE,TRUE,3,0.898950307,red,x,0,37,37,37,1,0.604854621,0.477881014,0.558161717,0.50431812,FALSE,resources/alien1_norm.png,0.604854621,resources/alien2_norm.png,0.477881014,0.2673,alien2,TRUE,2,0.234311752,24,1,0.477881014,m,0.4875,,,,,,,,,,,,,,,,,,,,,,,,,,,,,,,,,
GOSH_A12,2023-11-10_12h51.10.671,two_step_task_legacy,2022.2.4,Win32,59.66587112,2,learning,0,TRUE,TRUE,2,0.515620991,purple,x,0,38,38,38,1,0.588574075,0.534531278,0.530772143,0.52797049,FALSE,resources/alien3_norm.png,0.530772143,resources/alien4_norm.png,0.52797049,0.3466,alien3,TRUE,3,0.91471211,24,0,0.530772143,x,0.4167,,,,,,,,,,,,,,,,,,,,,,,,,,,,,,,,,
GOSH_A12,2023-11-10_12h51.10.671,two_step_task_legacy,2022.2.4,Win32,59.66587112,2,learning,0,TRUE,TRUE,2,0.664936157,purple,x,0,39,39,39,1,0.595909038,0.531132777,0.540735318,0.557222525,FALSE,resources/alien3_norm.png,0.540735318,resources/alien4_norm.png,0.557222525,0.2194,alien3,TRUE,2,0.048166787,25,1,0.540735318,x,0.3508,,,,,,,,,,,,,,,,,,,,,,,,,,,,,,,,,
GOSH_A12,2023-11-10_12h51.10.671,two_step_task_legacy,2022.2.4,Win32,59.66587112,2,learning,0,TRUE,TRUE,2,0.010610896,purple,x,0,40,40,40,1,0.574771467,0.540223528,0.494666279,0.583638711,FALSE,resources/alien3_norm.png,0.494666279,resources/alien4_norm.png,0.583638711,0.3173,alien3,TRUE,2,0.475018199,26,1,0.494666279,x,0.5155,,,,,,,,,,,,,,,,,,,,,,,,,,,,,,,,,
GOSH_A12,2023-11-10_12h51.10.671,two_step_task_legacy,2022.2.4,Win32,59.66587112,2,learning,0,TRUE,TRUE,2,0.663587549,purple,x,0,41,41,41,1,0.584272001,0.559165838,0.50627781,0.5945859,TRUE,resources/alien4_norm.png,0.5945859,resources/alien3_norm.png,0.50627781,0.2898,alien3,TRUE,3,0.88887384,26,0,0.50627781,m,0.4701,,,,,,,,,,,,,,,,,,,,,,,,,,,,,,,,,
GOSH_A12,2023-11-10_12h51.10.671,two_step_task_legacy,2022.2.4,Win32,59.66587112,2,learning,0,TRUE,TRUE,2,0.23617738,purple,x,0,42,42,42,1,0.630034319,0.617175123,0.516590823,0.640132819,FALSE,resources/alien3_norm.png,0.516590823,resources/alien4_norm.png,0.640132819,0.4174,alien3,TRUE,2,0.172020549,27,1,0.516590823,x,0.4845,,,,,,,,,,,,,,,,,,,,,,,,,,,,,,,,,
GOSH_A12,2023-11-10_12h51.10.671,two_step_task_legacy,2022.2.4,Win32,59.66587112,2,learning,0,TRUE,TRUE,2,0.67609772,purple,x,0,43,43,43,1,0.619075687,0.616003092,0.487932716,0.607580451,FALSE,resources/alien3_norm.png,0.487932716,resources/alien4_norm.png,0.607580451,0.3233,alien3,TRUE,2,0.245827407,28,1,0.487932716,x,0.446,,,,,,,,,,,,,,,,,,,,,,,,,,,,,,,,,
GOSH_A12,2023-11-10_12h51.10.671,two_step_task_legacy,2022.2.4,Win32,59.66587112,2,learning,0,TRUE,TRUE,2,0.656552223,purple,x,0,44,44,44,1,0.605356515,0.582526972,0.519583753,0.572653625,TRUE,resources/alien4_norm.png,0.572653625,resources/alien3_norm.png,0.519583753,0.3172,alien3,TRUE,3,0.666342644,28,0,0.519583753,m,0.4373,,,,,,,,,,,,,,,,,,,,,,,,,,,,,,,,,
GOSH_A12,2023-11-10_12h51.10.671,two_step_task_legacy,2022.2.4,Win32,59.66587112,2,learning,0,TRUE,TRUE,2,0.35438947,purple,x,0,45,45,45,1,0.557081221,0.577200294,0.511061951,0.574858948,FALSE,resources/alien3_norm.png,0.511061951,resources/alien4_norm.png,0.574858948,0.2663,alien3,TRUE,2,0.137928823,29,1,0.511061951,x,0.5783,,,,,,,,,,,,,,,,,,,,,,,,,,,,,,,,,
GOSH_A12,2023-11-10_12h51.10.671,two_step_task_legacy,2022.2.4,Win32,59.66587112,2,learning,0,TRUE,TRUE,2,0.636892301,purple,x,0,46,46,46,1,0.555291304,0.598845262,0.532871987,0.595061916,TRUE,resources/alien4_norm.png,0.595061916,resources/alien3_norm.png,0.532871987,0.2516,alien3,TRUE,3,0.820866266,29,0,0.532871987,m,0.4413,,,,,,,,,,,,,,,,,,,,,,,,,,,,,,,,,
GOSH_A12,2023-11-10_12h51.10.671,two_step_task_legacy,2022.2.4,Win32,59.66587112,2,learning,0,TRUE,TRUE,2,0.18791166,purple,x,0,47,47,47,1,0.578601924,0.598532069,0.529726075,0.585828111,FALSE,resources/alien3_norm.png,0.529726075,resources/alien4_norm.png,0.585828111,0.2725,alien3,TRUE,3,0.687089718,29,0,0.529726075,x,0.4322,,,,,,,,,,,,,,,,,,,,,,,,,,,,,,,,,
GOSH_A12,2023-11-10_12h51.10.671,two_step_task_legacy,2022.2.4,Win32,59.66587112,2,learning,0,TRUE,TRUE,2,0.256118044,purple,x,0,48,48,48,1,0.542249819,0.586538679,0.558730333,0.573653694,TRUE,resources/alien4_norm.png,0.573653694,resources/alien3_norm.png,0.558730333,0.1999,alien3,TRUE,2,0.518871476,30,1,0.558730333,m,0.5177,,,,,,,,,,,,,,,,,,,,,,,,,,,,,,,,,
GOSH_A12,2023-11-10_12h51.10.671,two_step_task_legacy,2022.2.4,Win32,59.66587112,2,learning,0,TRUE,TRUE,2,0.100081547,purple,x,0,49,49,49,1,0.519538965,0.584343304,0.622833908,0.600621292,FALSE,resources/alien3_norm.png,0.622833908,resources/alien4_norm.png,0.600621292,0.3339,alien3,TRUE,3,0.81653074,30,0,0.622833908,x,0.4373,,,,,,,,,,,,,,,,,,,,,,,,,,,,,,,,,
GOSH_A12,2023-11-10_12h51.10.671,two_step_task_legacy,2022.2.4,Win32,59.66587112,2,learning,0,TRUE,TRUE,2,0.662824199,purple,x,0,50,50,50,1,0.554572557,0.581709677,0.620348506,0.607356483,TRUE,resources/alien4_norm.png,0.607356483,resources/alien3_norm.png,0.620348506,0.2204,alien3,TRUE,3,0.999972287,30,0,0.620348506,m,0.4177,,,,,,,,,,,,,,,,,,,,,,,,,,,,,,,,,
GOSH_A12,2023-11-10_12h51.10.671,two_step_task_legacy,2022.2.4,Win32,59.66587112,2,learning,1,TRUE,TRUE,3,0.974672876,red,x,0,51,51,51,1,0.547889004,0.612718726,0.6031703,0.607009894,FALSE,resources/alien1_norm.png,0.547889004,resources/alien2_norm.png,0.612718726,0.6309,alien2,TRUE,2,0.129211563,31,1,0.612718726,m,0.8037,,,,,,,,,,,,,,,,,,,,,,,,,,,,,,,,,
GOSH_A12,2023-11-10_12h51.10.671,two_step_task_legacy,2022.2.4,Win32,59.66587112,2,learning,0,TRUE,TRUE,3,0.229292021,red,m,0,52,52,52,1,0.544060582,0.595407189,0.557769273,0.588840226,FALSE,resources/alien1_norm.png,0.544060582,resources/alien2_norm.png,0.595407189,0.3207,alien2,TRUE,2,0.003433598,32,1,0.595407189,m,0.4165,,,,,,,,,,,,,,,,,,,,,,,,,,,,,,,,,
GOSH_A12,2023-11-10_12h51.10.671,two_step_task_legacy,2022.2.4,Win32,59.66587112,2,learning,0,TRUE,TRUE,3,0.183706413,red,m,0,53,53,53,1,0.545266218,0.593072845,0.542082465,0.626166645,TRUE,resources/alien2_norm.png,0.593072845,resources/alien1_norm.png,0.545266218,0.2538,alien2,TRUE,2,0.175034882,33,1,0.593072845,x,0.7374,,,,,,,,,,,,,,,,,,,,,,,,,,,,,,,,,
GOSH_A12,2023-11-10_12h51.10.671,two_step_task_legacy,2022.2.4,Win32,59.66587112,2,learning,0,TRUE,TRUE,3,0.459390338,red,m,0,54,54,54,1,0.533636761,0.617187035,0.542691053,0.641639284,FALSE,resources/alien1_norm.png,0.533636761,resources/alien2_norm.png,0.617187035,0.3255,alien2,TRUE,2,0.093279756,34,1,0.617187035,m,0.5619,,,,,,,,,,,,,,,,,,,,,,,,,,,,,,,,,
GOSH_A12,2023-11-10_12h51.10.671,two_step_task_legacy,2022.2.4,Win32,59.66587112,2,learning,1,TRUE,TRUE,2,0.899113836,purple,m,0,55,55,55,1,0.53071874,0.642883939,0.540688793,0.613630346,TRUE,resources/alien4_norm.png,0.613630346,resources/alien3_norm.png,0.540688793,0.354,alien3,TRUE,2,0.490124053,35,1,0.540688793,m,0.9959,,,,,,,,,,,,,,,,,,,,,,,,,,,,,,,,,
GOSH_A12,2023-11-10_12h51.10.671,two_step_task_legacy,2022.2.4,Win32,59.66587112,2,learning,0,TRUE,TRUE,3,0.559554825,red,m,0,56,56,56,1,0.508540082,0.642374716,0.506133513,0.604506511,FALSE,resources/alien1_norm.png,0.508540082,resources/alien2_norm.png,0.642374716,0.3216,alien2,TRUE,3,0.928431764,35,0,0.642374716,m,0.6158,,,,,,,,,,,,,,,,,,,,,,,,,,,,,,,,,
GOSH_A12,2023-11-10_12h51.10.671,two_step_task_legacy,2022.2.4,Win32,59.66587112,2,learning,1,TRUE,TRUE,2,0.907608335,purple,m,0,57,57,57,1,0.519337081,0.646260215,0.531679577,0.600516429,TRUE,resources/alien4_norm.png,0.600516429,resources/alien3_norm.png,0.531679577,0.3852,alien3,TRUE,3,0.872507197,35,0,0.531679577,m,0.8118,,,,,,,,,,,,,,,,,,,,,,,,,,,,,,,,,
GOSH_A12,2023-11-10_12h51.10.671,two_step_task_legacy,2022.2.4,Win32,59.66587112,2,learning,0,TRUE,TRUE,3,0.034046203,red,m,0,58,58,58,1,0.515119314,0.644987866,0.525737079,0.596579648,FALSE,resources/alien1_norm.png,0.515119314,resources/alien2_norm.png,0.644987866,0.2403,alien2,TRUE,3,0.936206844,35,0,0.644987866,m,1.0203,,,,,,,,,,,,,,,,,,,,,,,,,,,,,,,,,
GOSH_A12,2023-11-10_12h51.10.671,two_step_task_legacy,2022.2.4,Win32,59.66587112,2,learning,1,TRUE,TRUE,2,0.906639106,purple,m,0,59,59,59,1,0.482207563,0.621644772,0.535111942,0.600256718,TRUE,resources/alien4_norm.png,0.600256718,resources/alien3_norm.png,0.535111942,0.2267,alien3,TRUE,3,0.53781373,35,0,0.535111942,m,0.9998,,,,,,,,,,,,,,,,,,,,,,,,,,,,,,,,,
GOSH_A12,2023-11-10_12h51.10.671,two_step_task_legacy,2022.2.4,Win32,59.66587112,2,learning,1,TRUE,TRUE,2,0.89798707,purple,m,0,60,60,60,1,0.450055305,0.66669687,0.514338736,0.607153047,TRUE,resources/alien4_norm.png,0.607153047,resources/alien3_norm.png,0.514338736,0.2446,alien4,TRUE,2,0.575418591,36,1,0.607153047,x,0.7523,,,,,,,,,,,,,,,,,,,,,,,,,,,,,,,,,
GOSH_A12,2023-11-10_12h51.10.671,two_step_task_legacy,2022.2.4,Win32,59.66587112,2,learning,0,TRUE,TRUE,3,0.662589296,red,m,0,61,61,61,1,0.419368289,0.658101899,0.471642866,0.583823796,FALSE,resources/alien1_norm.png,0.419368289,resources/alien2_norm.png,0.658101899,0.3149,alien1,TRUE,2,0.233447433,37,1,0.419368289,x,0.5324,,,,,,,,,,,,,,,,,,,,,,,,,,,,,,,,,
GOSH_A12,2023-11-10_12h51.10.671,two_step_task_legacy,2022.2.4,Win32,59.66587112,2,learning,1,TRUE,TRUE,3,0.718634027,red,x,0,62,62,62,1,0.476081837,0.679582459,0.495383864,0.577391808,TRUE,resources/alien2_norm.png,0.679582459,resources/alien1_norm.png,0.476081837,0.5013,alien1,TRUE,2,0.111787267,38,1,0.476081837,m,0.7782,,,,,,,,,,,,,,,,,,,,,,,,,,,,,,,,,
GOSH_A12,2023-11-10_12h51.10.671,two_step_task_legacy,2022.2.4,Win32,59.66587112,2,learning,1,TRUE,TRUE,3,0.716216697,red,x,0,63,63,63,1,0.46564135,0.656019472,0.492482455,0.584382346,FALSE,resources/alien1_norm.png,0.46564135,resources/alien2_norm.png,0.656019472,0.3616,alien1,TRUE,2,0.356074207,39,1,0.46564135,x,0.5706,,,,,,,,,,,,,,,,,,,,,,,,,,,,,,,,,
GOSH_A12,2023-11-10_12h51.10.671,two_step_task_legacy,2022.2.4,Win32,59.66587112,2,learning,0,TRUE,TRUE,2,0.458887915,purple,x,0,64,64,64,1,0.477315304,0.650679566,0.473090091,0.579903099,TRUE,resources/alien4_norm.png,0.579903099,resources/alien3_norm.png,0.473090091,0.3249,alien4,TRUE,2,0.409235248,40,1,0.579903099,x,0.6668,,,,,,,,,,,,,,,,,,,,,,,,,,,,,,,,,
GOSH_A12,2023-11-10_12h51.10.671,two_step_task_legacy,2022.2.4,Win32,59.66587112,2,learning,1,TRUE,TRUE,3,0.711802324,red,x,0,65,65,65,1,0.46552265,0.62334515,0.46600528,0.57197952,TRUE,resources/alien2_norm.png,0.62334515,resources/alien1_norm.png,0.46552265,0.3195,alien1,TRUE,3,0.50508587,40,0,0.46552265,m,0.7534,,,,,,,,,,,,,,,,,,,,,,,,,,,,,,,,,
GOSH_A12,2023-11-10_12h51.10.671,two_step_task_legacy,2022.2.4,Win32,59.66587112,2,learning,1,TRUE,TRUE,3,0.99179933,red,x,0,66,66,66,1,0.475612123,0.625851031,0.423812817,0.610089415,TRUE,resources/alien2_norm.png,0.625851031,resources/alien1_norm.png,0.475612123,0.277,alien1,TRUE,3,0.502184032,40,0,0.475612123,m,0.7069,,,,,,,,,,,,,,,,,,,,,,,,,,,,,,,,,
GOSH_A12,2023-11-10_12h51.10.671,two_step_task_legacy,2022.2.4,Win32,59.66587112,2,learning,0,TRUE,TRUE,2,0.503927468,purple,x,0,67,67,67,1,0.488225722,0.591916813,0.389156213,0.604504253,TRUE,resources/alien4_norm.png,0.604504253,resources/alien3_norm.png,0.389156213,0.2498,alien4,TRUE,2,0.430572204,41,1,0.604504253,x,0.7892,,,,,,,,,,,,,,,,,,,,,,,,,,,,,,,,,
GOSH_A12,2023-11-10_12h51.10.671,two_step_task_legacy,2022.2.4,Win32,59.66587112,2,learning,0,TRUE,TRUE,2,0.5272743,purple,x,0,68,68,68,1,0.447473516,0.566650103,0.426911286,0.600400303,TRUE,resources/alien4_norm.png,0.600400303,resources/alien3_norm.png,0.426911286,0.3374,alien4,TRUE,2,0.262998899,42,1,0.600400303,x,0.4998,,,,,,,,,,,,,,,,,,,,,,,,,,,,,,,,,
GOSH_A12,2023-11-10_12h51.10.671,two_step_task_legacy,2022.2.4,Win32,59.66587112,2,learning,0,TRUE,TRUE,2,0.522706777,purple,x,0,69,69,69,1,0.446833039,0.601017704,0.419171163,0.645762646,TRUE,resources/alien4_norm.png,0.645762646,resources/alien3_norm.png,0.419171163,0.2379,alien4,TRUE,3,0.83432413,42,0,0.645762646,x,0.4117,,,,,,,,,,,,,,,,,,,,,,,,,,,,,,,,,
GOSH_A12,2023-11-10_12h51.10.671,two_step_task_legacy,2022.2.4,Win32,59.66587112,2,learning,1,TRUE,TRUE,3,0.946504788,red,x,0,70,70,70,1,0.46229688,0.577212844,0.381881382,0.679798258,TRUE,resources/alien2_norm.png,0.577212844,resources/alien1_norm.png,0.46229688,0.2173,alien2,TRUE,3,0.665562696,42,0,0.577212844,x,1.0512,,,,,,,,,,,,,,,,,,,,,,,,,,,,,,,,,
GOSH_A12,2023-11-10_12h51.10.671,two_step_task_legacy,2022.2.4,Win32,59.66587112,2,learning,0,TRUE,TRUE,2,0.174369509,purple,x,0,71,71,71,1,0.447857256,0.585168326,0.372866063,0.744246282,FALSE,resources/alien3_norm.png,0.372866063,resources/alien4_norm.png,0.744246282,0.1745,alien4,TRUE,3,0.796571768,42,0,0.744246282,m,0.6417,,,,,,,,,,,,,,,,,,,,,,,,,,,,,,,,,
GOSH_A12,2023-11-10_12h51.10.671,two_step_task_legacy,2022.2.4,Win32,59.66587112,2,learning,0,TRUE,TRUE,2,0.610045967,purple,x,0,72,72,72,1,0.469156344,0.590253845,0.365658811,0.738925901,FALSE,resources/alien3_norm.png,0.365658811,resources/alien4_norm.png,0.738925901,0.1779,alien3,TRUE,3,0.536121353,42,0,0.365658811,x,0.3735,,,,,,,,,,,,,,,,,,,,,,,,,,,,,,,,,
GOSH_A12,2023-11-10_12h51.10.671,two_step_task_legacy,2022.2.4,Win32,59.66587112,2,learning,1,TRUE,TRUE,3,0.999424925,red,x,0,73,73,73,1,0.524386296,0.606410566,0.368495441,0.745967699,FALSE,resources/alien1_norm.png,0.524386296,resources/alien2_norm.png,0.606410566,0.1314,alien1,TRUE,3,0.685028416,42,0,0.524386296,x,0.9203,,,,,,,,,,,,,,,,,,,,,,,,,,,,,,,,,
GOSH_A12,2023-11-10_12h51.10.671,two_step_task_legacy,2022.2.4,Win32,59.66587112,2,learning,1,TRUE,TRUE,3,0.742018572,red,x,0,74,74,74,1,0.546195851,0.610187899,0.382592524,0.747056302,FALSE,resources/alien1_norm.png,0.546195851,resources/alien2_norm.png,0.610187899,0.0996,alien2,TRUE,2,0.579551283,43,1,0.610187899,m,1.6731,,,,,,,,,,,,,,,,,,,,,,,,,,,,,,,,,
GOSH_A12,2023-11-10_12h51.10.671,two_step_task_legacy,2022.2.4,Win32,59.66587112,2,learning,0,TRUE,TRUE,2,0.581957905,purple,x,0,75,75,75,1,0.516674318,0.630410906,0.365808589,0.727966599,FALSE,resources/alien3_norm.png,0.365808589,resources/alien4_norm.png,0.727966599,0.3049,alien3,TRUE,3,0.612106754,43,0,0.365808589,x,1.2107,,,,,,,,,,,,,,,,,,,,,,,,,,,,,,,,,
GOSH_A12,2023-11-10_12h51.10.671,two_step_task_legacy,2022.2.4,Win32,59.66587112,2,learning,0,TRUE,TRUE,2,0.370471756,purple,x,0,76,76,76,1,0.513333865,0.600336462,0.376049182,0.747496672,TRUE,resources/alien4_norm.png,0.747496672,resources/alien3_norm.png,0.376049182,0.241,alien4,TRUE,2,0.670105983,44,1,0.747496672,x,0.891,,,,,,,,,,,,,,,,,,,,,,,,,,,,,,,,,
GOSH_A12,2023-11-10_12h51.10.671,two_step_task_legacy,2022.2.4,Win32,59.66587112,2,learning,1,TRUE,TRUE,3,0.966910244,red,x,0,77,77,77,1,0.533414093,0.616695744,0.366792972,0.743468027,TRUE,resources/alien2_norm.png,0.616695744,resources/alien1_norm.png,0.533414093,0.3539,alien2,TRUE,2,0.253058685,45,1,0.616695744,x,1.1173,,,,,,,,,,,,,,,,,,,,,,,,,,,,,,,,,
GOSH_A12,2023-11-10_12h51.10.671,two_step_task_legacy,2022.2.4,Win32,59.66587112,2,learning,0,TRUE,TRUE,2,0.317408669,purple,x,0,78,78,78,1,0.522426186,0.626472856,0.342893528,0.729281693,FALSE,resources/alien3_norm.png,0.342893528,resources/alien4_norm.png,0.729281693,0.2202,alien4,TRUE,2,0.447256492,46,1,0.729281693,m,0.5486,,,,,,,,,,,,,,,,,,,,,,,,,,,,,,,,,
GOSH_A12,2023-11-10_12h51.10.671,two_step_task_legacy,2022.2.4,Win32,59.66587112,2,learning,1,TRUE,TRUE,3,0.845639465,red,x,0,79,79,79,1,0.537512346,0.612363775,0.328275201,0.732241262,TRUE,resources/alien2_norm.png,0.612363775,resources/alien1_norm.png,0.537512346,0.2646,alien2,TRUE,2,0.472578385,47,1,0.612363775,x,0.9337,,,,,,,,,,,,,,,,,,,,,,,,,,,,,,,,,
GOSH_A12,2023-11-10_12h51.10.671,two_step_task_legacy,2022.2.4,Win32,59.66587112,2,learning,0,TRUE,TRUE,2,0.173483437,purple,x,0,80,80,80,1,0.564643748,0.646040762,0.339910551,0.703847115,TRUE,resources/alien4_norm.png,0.703847115,resources/alien3_norm.png,0.339910551,0.2496,alien4,TRUE,2,0.237140585,48,1,0.703847115,x,0.6598,,,,,,,,,,,,,,,,,,,,,,,,,,,,,,,,,
GOSH_A12,2023-11-10_12h51.10.671,two_step_task_legacy,2022.2.4,Win32,59.66587112,2,learning,0,TRUE,TRUE,2,0.652832355,purple,x,0,81,81,81,1,0.574339547,0.667820554,0.355880374,0.713459204,TRUE,resources/alien4_norm.png,0.713459204,resources/alien3_norm.png,0.355880374,0.3105,alien4,TRUE,2,0.059499929,49,1,0.713459204,x,0.5435,,,,,,,,,,,,,,,,,,,,,,,,,,,,,,,,,
GOSH_A12,2023-11-10_12h51.10.671,two_step_task_legacy,2022.2.4,Win32,59.66587112,2,learning,0,TRUE,TRUE,2,0.476162174,purple,x,0,82,82,82,1,0.55697673,0.698602971,0.383992384,0.723108132,TRUE,resources/alien4_norm.png,0.723108132,resources/alien3_norm.png,0.383992384,0.3199,alien4,TRUE,2,0.549949286,50,1,0.723108132,x,0.5,,,,,,,,,,,,,,,,,,,,,,,,,,,,,,,,,
GOSH_A12,2023-11-10_12h51.10.671,two_step_task_legacy,2022.2.4,Win32,59.66587112,2,learning,1,TRUE,TRUE,3,0.724441802,red,x,0,83,83,83,1,0.520995768,0.688535499,0.388691416,0.74849031,TRUE,resources/alien2_norm.png,0.688535499,resources/alien1_norm.png,0.520995768,0.2106,alien2,TRUE,2,0.089153664,51,1,0.688535499,x,0.7335,,,,,,,,,,,,,,,,,,,,,,,,,,,,,,,,,
GOSH_A12,2023-11-10_12h51.10.671,two_step_task_legacy,2022.2.4,Win32,59.66587112,2,learning,0,TRUE,TRUE,2,0.616514825,purple,x,0,84,84,84,1,0.560357955,0.710364652,0.394471814,0.708470458,TRUE,resources/alien4_norm.png,0.708470458,resources/alien3_norm.png,0.394471814,0.236,alien4,TRUE,2,0.040747345,52,1,0.708470458,x,0.3733,,,,,,,,,,,,,,,,,,,,,,,,,,,,,,,,,
GOSH_A12,2023-11-10_12h51.10.671,two_step_task_legacy,2022.2.4,Win32,59.66587112,2,learning,1,TRUE,TRUE,3,0.774815836,red,x,0,85,85,85,1,0.642492048,0.694563603,0.366165455,0.701290951,FALSE,resources/alien1_norm.png,0.642492048,resources/alien2_norm.png,0.694563603,0.3033,alien2,TRUE,2,0.349219153,53,1,0.694563603,m,0.4658,,,,,,,,,,,,,,,,,,,,,,,,,,,,,,,,,
GOSH_A12,2023-11-10_12h51.10.671,two_step_task_legacy,2022.2.4,Win32,59.66587112,2,learning,0,TRUE,TRUE,2,0.191147886,purple,x,0,86,86,86,1,0.659827268,0.693119638,0.339851899,0.68653895,TRUE,resources/alien4_norm.png,0.68653895,resources/alien3_norm.png,0.339851899,0.2871,alien4,TRUE,2,0.430817965,54,1,0.68653895,x,0.4308,,,,,,,,,,,,,,,,,,,,,,,,,,,,,,,,,
GOSH_A12,2023-11-10_12h51.10.671,two_step_task_legacy,2022.2.4,Win32,59.66587112,2,learning,1,TRUE,TRUE,3,0.87614569,red,x,0,87,87,87,1,0.662335746,0.693358738,0.344034175,0.714890726,TRUE,resources/alien2_norm.png,0.693358738,resources/alien1_norm.png,0.662335746,0.2813,alien2,TRUE,2,0.291470977,55,1,0.693358738,x,0.675,,,,,,,,,,,,,,,,,,,,,,,,,,,,,,,,,
GOSH_A12,2023-11-10_12h51.10.671,two_step_task_legacy,2022.2.4,Win32,59.66587112,2,learning,1,TRUE,TRUE,3,0.900037801,red,x,0,88,88,88,1,0.654953403,0.711283868,0.317764846,0.686498284,TRUE,resources/alien2_norm.png,0.711283868,resources/alien1_norm.png,0.654953403,0.3254,alien2,TRUE,2,0.042679626,56,1,0.711283868,x,0.6038,,,,,,,,,,,,,,,,,,,,,,,,,,,,,,,,,
GOSH_A12,2023-11-10_12h51.10.671,two_step_task_legacy,2022.2.4,Win32,59.66587112,2,learning,1,TRUE,TRUE,3,0.812885551,red,x,0,89,89,89,1,0.616516022,0.696475853,0.351001491,0.679595828,TRUE,resources/alien2_norm.png,0.696475853,resources/alien1_norm.png,0.616516022,0.2666,alien2,TRUE,2,0.230074033,57,1,0.696475853,x,0.4609,,,,,,,,,,,,,,,,,,,,,,,,,,,,,,,,,
GOSH_A12,2023-11-10_12h51.10.671,two_step_task_legacy,2022.2.4,Win32,59.66587112,2,learning,1,TRUE,TRUE,3,0.738242905,red,x,0,90,90,90,1,0.617393134,0.712975203,0.333950803,0.65457047,FALSE,resources/alien1_norm.png,0.617393134,resources/alien2_norm.png,0.712975203,0.2933,alien2,TRUE,2,0.336159445,58,1,0.712975203,m,0.5955,,,,,,,,,,,,,,,,,,,,,,,,,,,,,,,,,
GOSH_A12,2023-11-10_12h51.10.671,two_step_task_legacy,2022.2.4,Win32,59.66587112,2,learning,0,TRUE,TRUE,2,0.65677181,purple,x,0,91,91,91,1,0.605248488,0.727979256,0.333164568,0.68681226,TRUE,resources/alien4_norm.png,0.68681226,resources/alien3_norm.png,0.333164568,0.3781,alien4,TRUE,2,0.387766077,59,1,0.68681226,x,0.4824,,,,,,,,,,,,,,,,,,,,,,,,,,,,,,,,,
GOSH_A12,2023-11-10_12h51.10.671,two_step_task_legacy,2022.2.4,Win32,59.66587112,2,learning,0,TRUE,TRUE,2,0.542117149,purple,x,0,92,92,92,1,0.597920866,0.710049944,0.335050717,0.695375305,FALSE,resources/alien3_norm.png,0.335050717,resources/alien4_norm.png,0.695375305,0.272,alien4,TRUE,2,0.237676124,60,1,0.695375305,m,0.483,,,,,,,,,,,,,,,,,,,,,,,,,,,,,,,,,
GOSH_A12,2023-11-10_12h51.10.671,two_step_task_legacy,2022.2.4,Win32,59.66587112,2,learning,0,TRUE,TRUE,2,0.189358297,purple,x,0,93,93,93,1,0.570087701,0.695892733,0.361676132,0.705704451,FALSE,resources/alien3_norm.png,0.361676132,resources/alien4_norm.png,0.705704451,0.297,alien4,TRUE,2,0.370561281,61,1,0.705704451,m,0.5016,,,,,,,,,,,,,,,,,,,,,,,,,,,,,,,,,
GOSH_A12,2023-11-10_12h51.10.671,two_step_task_legacy,2022.2.4,Win32,59.66587112,2,learning,0,TRUE,TRUE,2,0.694458708,purple,x,0,94,94,94,1,0.529720036,0.708120691,0.335318237,0.711789496,FALSE,resources/alien3_norm.png,0.335318237,resources/alien4_norm.png,0.711789496,0.2934,alien4,TRUE,2,0.062670111,62,1,0.711789496,m,0.5327,,,,,,,,,,,,,,,,,,,,,,,,,,,,,,,,,
GOSH_A12,2023-11-10_12h51.10.671,two_step_task_legacy,2022.2.4,Win32,59.66587112,2,learning,0,TRUE,TRUE,2,0.060075722,purple,x,0,95,95,95,1,0.47635657,0.721500672,0.398221116,0.682412233,FALSE,resources/alien3_norm.png,0.398221116,resources/alien4_norm.png,0.682412233,0.3317,alien4,TRUE,2,0.540324281,63,1,0.682412233,m,0.4567,,,,,,,,,,,,,,,,,,,,,,,,,,,,,,,,,
GOSH_A12,2023-11-10_12h51.10.671,two_step_task_legacy,2022.2.4,Win32,59.66587112,2,learning,0,TRUE,TRUE,2,0.419198853,purple,x,0,96,96,96,1,0.466179965,0.715414355,0.401364405,0.649304922,FALSE,resources/alien3_norm.png,0.401364405,resources/alien4_norm.png,0.649304922,0.3164,alien4,TRUE,3,0.782385042,63,0,0.649304922,m,0.4472,,,,,,,,,,,,,,,,,,,,,,,,,,,,,,,,,
GOSH_A12,2023-11-10_12h51.10.671,two_step_task_legacy,2022.2.4,Win32,59.66587112,2,learning,0,TRUE,TRUE,2,0.616370469,purple,x,0,97,97,97,1,0.467126539,0.723595882,0.396988401,0.645948713,FALSE,resources/alien3_norm.png,0.396988401,resources/alien4_norm.png,0.645948713,0.2729,alien4,TRUE,2,0.518002607,64,1,0.645948713,m,0.48,,,,,,,,,,,,,,,,,,,,,,,,,,,,,,,,,
GOSH_A12,2023-11-10_12h51.10.671,two_step_task_legacy,2022.2.4,Win32,59.66587112,2,learning,1,TRUE,TRUE,3,0.762274844,red,x,0,98,98,98,1,0.439790307,0.696269276,0.433219326,0.668586832,TRUE,resources/alien2_norm.png,0.696269276,resources/alien1_norm.png,0.439790307,0.3008,alien2,TRUE,2,0.111923618,65,1,0.696269276,x,0.5366,,,,,,,,,,,,,,,,,,,,,,,,,,,,,,,,,
GOSH_A12,2023-11-10_12h51.10.671,two_step_task_legacy,2022.2.4,Win32,59.66587112,2,learning,0,TRUE,TRUE,2,0.560693063,purple,x,0,99,99,99,1,0.464800643,0.659724849,0.442086132,0.680060197,TRUE,resources/alien4_norm.png,0.680060197,resources/alien3_norm.png,0.442086132,0.2894,alien4,TRUE,3,0.784321351,65,0,0.680060197,x,0.5264,,,,,,,,,,,,,,,,,,,,,,,,,,,,,,,,,
GOSH_A12,2023-11-10_12h51.10.671,two_step_task_legacy,2022.2.4,Win32,59.66587112,2,learning,0,TRUE,TRUE,2,0.017660649,purple,x,0,100,100,100,1,0.453655036,0.648409952,0.432642845,0.688821162,TRUE,resources/alien4_norm.png,0.688821162,resources/alien3_norm.png,0.432642845,0.2664,alien3,TRUE,3,0.675306961,65,0,0.432642845,m,0.9617,,,,,,,,,,,,,,,,,,,,,,,,,,,,,,,,,
GOSH_A12,2023-11-10_12h51.10.671,two_step_task_legacy,2022.2.4,Win32,59.66587112,2,learning,0,TRUE,TRUE,2,0.132284586,purple,x,0,101,101,101,1,0.480154937,0.66099901,0.452743872,0.655063209,TRUE,resources/alien4_norm.png,0.655063209,resources/alien3_norm.png,0.452743872,0.2087,alien4,TRUE,2,0.016482059,66,1,0.655063209,x,0.3524,,,,,,,,,,,,,,,,,,,,,,,,,,,,,,,,,
GOSH_A12,2023-11-10_12h51.10.671,two_step_task_legacy,2022.2.4,Win32,59.66587112,2,learning,0,TRUE,TRUE,2,0.233195677,purple,x,0,102,102,102,1,0.435064291,0.686802619,0.456887081,0.675596743,TRUE,resources/alien4_norm.png,0.675596743,resources/alien3_norm.png,0.456887081,0.2826,alien4,TRUE,3,0.764158605,66,0,0.675596743,x,0.3841,,,,,,,,,,,,,,,,,,,,,,,,,,,,,,,,,
GOSH_A12,2023-11-10_12h51.10.671,two_step_task_legacy,2022.2.4,Win32,59.66587112,2,learning,1,TRUE,TRUE,3,0.882269156,red,x,0,103,103,103,1,0.4274682,0.689975019,0.437649181,0.728894923,FALSE,resources/alien1_norm.png,0.4274682,resources/alien2_norm.png,0.689975019,0.2732,alien2,TRUE,2,0.12782693,67,1,0.689975019,m,0.9961,,,,,,,,,,,,,,,,,,,,,,,,,,,,,,,,,
GOSH_A12,2023-11-10_12h51.10.671,two_step_task_legacy,2022.2.4,Win32,59.66587112,2,learning,1,TRUE,TRUE,2,0.840226422,purple,m,0,104,104,104,1,0.394205489,0.723807258,0.448066099,0.744590341,FALSE,resources/alien3_norm.png,0.448066099,resources/alien4_norm.png,0.744590341,0.2674,alien4,TRUE,3,0.949786784,67,0,0.744590341,m,0.8108,,,,,,,,,,,,,,,,,,,,,,,,,,,,,,,,,
GOSH_A12,2023-11-10_12h51.10.671,two_step_task_legacy,2022.2.4,Win32,59.66587112,2,learning,1,TRUE,TRUE,2,0.817811961,purple,m,0,105,105,105,1,0.37371153,0.742093466,0.485443502,0.723819794,TRUE,resources/alien4_norm.png,0.723819794,resources/alien3_norm.png,0.485443502,0.2549,alien4,TRUE,3,0.86592102,67,0,0.723819794,x,0.562,,,,,,,,,,,,,,,,,,,,,,,,,,,,,,,,,
GOSH_A12,2023-11-10_12h51.10.671,two_step_task_legacy,2022.2.4,Win32,59.66587112,2,learning,1,TRUE,TRUE,3,0.925526127,red,x,0,106,106,106,1,0.349275118,0.734634343,0.478530119,0.67031434,FALSE,resources/alien1_norm.png,0.349275118,resources/alien2_norm.png,0.734634343,0.2673,alien2,TRUE,3,0.966385576,67,0,0.734634343,m,0.5201,,,,,,,,,,,,,,,,,,,,,,,,,,,,,,,,,
GOSH_A12,2023-11-10_12h51.10.671,two_step_task_legacy,2022.2.4,Win32,59.66587112,2,learning,0,TRUE,TRUE,2,0.694420298,purple,x,0,107,107,107,1,0.35021253,0.718841441,0.495373807,0.709673268,FALSE,resources/alien3_norm.png,0.495373807,resources/alien4_norm.png,0.709673268,0.3159,alien3,TRUE,3,0.607625707,67,0,0.495373807,x,1.4623,,,,,,,,,,,,,,,,,,,,,,,,,,,,,,,,,
GOSH_A12,2023-11-10_12h51.10.671,two_step_task_legacy,2022.2.4,Win32,59.66587112,2,learning,0,TRUE,TRUE,2,0.566069332,purple,x,0,108,108,108,1,0.337348022,0.676963284,0.450735795,0.731898862,FALSE,resources/alien3_norm.png,0.450735795,resources/alien4_norm.png,0.731898862,0.2589,alien4,TRUE,2,0.486149367,68,1,0.731898862,m,0.8513,,,,,,,,,,,,,,,,,,,,,,,,,,,,,,,,,
GOSH_A12,2023-11-10_12h51.10.671,two_step_task_legacy,2022.2.4,Win32,59.66587112,2,learning,0,TRUE,TRUE,3,0.260016522,red,m,0,109,109,109,1,0.322911322,0.662157072,0.480315234,0.74430369,FALSE,resources/alien1_norm.png,0.322911322,resources/alien2_norm.png,0.662157072,0.3841,alien2,TRUE,3,0.758549093,68,0,0.662157072,m,1.1323,,,,,,,,,,,,,,,,,,,,,,,,,,,,,,,,,
GOSH_A12,2023-11-10_12h51.10.671,two_step_task_legacy,2022.2.4,Win32,59.66587112,2,learning,1,TRUE,TRUE,2,0.761025102,purple,m,0,110,110,110,1,0.323042006,0.729054729,0.477745384,0.7400153,TRUE,resources/alien4_norm.png,0.7400153,resources/alien3_norm.png,0.477745384,0.2749,alien4,TRUE,2,0.067410239,69,1,0.7400153,x,0.887,,,,,,,,,,,,,,,,,,,,,,,,,,,,,,,,,
GOSH_A12,2023-11-10_12h51.10.671,two_step_task_legacy,2022.2.4,Win32,59.66587112,2,learning,0,TRUE,TRUE,3,0.277571747,red,m,0,111,111,111,1,0.346977723,0.717049686,0.502964312,0.740528536,TRUE,resources/alien2_norm.png,0.717049686,resources/alien1_norm.png,0.346977723,0.2748,alien1,TRUE,3,0.445905345,69,0,0.346977723,m,0.8406,,,,,,,,,,,,,,,,,,,,,,,,,,,,,,,,,
GOSH_A12,2023-11-10_12h51.10.671,two_step_task_legacy,2022.2.4,Win32,59.66587112,2,learning,0,TRUE,TRUE,3,0.319973158,red,m,0,112,112,112,1,0.332641057,0.710505866,0.560076847,0.746181252,TRUE,resources/alien2_norm.png,0.710505866,resources/alien1_norm.png,0.332641057,0.2676,alien1,TRUE,2,0.2884609,70,1,0.332641057,m,0.5707,,,,,,,,,,,,,,,,,,,,,,,,,,,,,,,,,
GOSH_A12,2023-11-10_12h51.10.671,two_step_task_legacy,2022.2.4,Win32,59.66587112,2,learning,0,TRUE,TRUE,3,0.575861161,red,m,0,113,113,113,1,0.329582244,0.713556046,0.551953466,0.737084193,FALSE,resources/alien1_norm.png,0.329582244,resources/alien2_norm.png,0.713556046,0.3206,alien1,TRUE,2,0.102548808,71,1,0.329582244,x,0.5437,,,,,,,,,,,,,,,,,,,,,,,,,,,,,,,,,
GOSH_A12,2023-11-10_12h51.10.671,two_step_task_legacy,2022.2.4,Win32,59.66587112,2,learning,0,TRUE,TRUE,3,0.128480037,red,m,0,114,114,114,1,0.300863762,0.698255739,0.54581186,0.722210778,TRUE,resources/alien2_norm.png,0.698255739,resources/alien1_norm.png,0.300863762,0.2618,alien1,TRUE,3,0.86571728,71,0,0.300863762,m,0.4712,,,,,,,,,,,,,,,,,,,,,,,,,,,,,,,,,
GOSH_A12,2023-11-10_12h51.10.671,two_step_task_legacy,2022.2.4,Win32,59.66587112,2,learning,1,TRUE,TRUE,3,0.811243319,red,x,0,115,115,115,1,0.335585272,0.683609207,0.527422928,0.744852234,FALSE,resources/alien1_norm.png,0.335585272,resources/alien2_norm.png,0.683609207,0.34,alien1,TRUE,2,0.156703499,72,1,0.335585272,x,0.8117,,,,,,,,,,,,,,,,,,,,,,,,,,,,,,,,,
GOSH_A12,2023-11-10_12h51.10.671,two_step_task_legacy,2022.2.4,Win32,59.66587112,2,learning,1,TRUE,TRUE,3,0.729072018,red,x,0,116,116,116,1,0.358671417,0.690248802,0.529277885,0.710357088,TRUE,resources/alien2_norm.png,0.690248802,resources/alien1_norm.png,0.358671417,0.3327,alien1,TRUE,3,0.386338227,72,0,0.358671417,m,0.596,,,,,,,,,,,,,,,,,,,,,,,,,,,,,,,,,
GOSH_A12,2023-11-10_12h51.10.671,two_step_task_legacy,2022.2.4,Win32,59.66587112,2,learning,0,TRUE,TRUE,2,0.44513305,purple,x,0,117,117,117,1,0.395365799,0.718538292,0.547665382,0.724019431,TRUE,resources/alien4_norm.png,0.724019431,resources/alien3_norm.png,0.547665382,0.3811,alien4,TRUE,2,0.646298732,73,1,0.724019431,x,0.5833,,,,,,,,,,,,,,,,,,,,,,,,,,,,,,,,,
GOSH_A12,2023-11-10_12h51.10.671,two_step_task_legacy,2022.2.4,Win32,59.66587112,2,learning,0,TRUE,TRUE,2,0.201262224,purple,x,0,118,118,118,1,0.384016558,0.721594268,0.542102089,0.74235091,TRUE,resources/alien4_norm.png,0.74235091,resources/alien3_norm.png,0.542102089,0.2438,alien4,TRUE,2,0.545547141,74,1,0.74235091,x,0.5377,,,,,,,,,,,,,,,,,,,,,,,,,,,,,,,,,
GOSH_A12,2023-11-10_12h51.10.671,two_step_task_legacy,2022.2.4,Win32,59.66587112,2,learning,1,TRUE,TRUE,3,0.871410656,red,x,0,119,119,119,1,0.379194304,0.706850908,0.527099802,0.742572012,FALSE,resources/alien1_norm.png,0.379194304,resources/alien2_norm.png,0.706850908,0.2499,alien1,TRUE,3,0.525011876,74,0,0.379194304,x,1.3781,,,,,,,,,,,,,,,,,,,,,,,,,,,,,,,,,
GOSH_A12,2023-11-10_12h51.10.671,two_step_task_legacy,2022.2.4,Win32,59.66587112,2,learning,0,TRUE,TRUE,2,0.086508549,purple,x,0,120,120,120,1,0.311589413,0.742746316,0.497453415,0.747849489,TRUE,resources/alien4_norm.png,0.747849489,resources/alien3_norm.png,0.497453415,0.2046,alien4,TRUE,2,0.056384279,75,1,0.747849489,x,0.6001,,,,,,,,,,,,,,,,,,,,,,,,,,,,,,,,,
GOSH_A12,2023-11-10_12h51.10.671,two_step_task_legacy,2022.2.4,Win32,59.66587112,2,learning,1,TRUE,TRUE,3,0.775017246,red,x,0,121,121,121,1,0.288613638,0.734331013,0.493636211,0.732948846,TRUE,resources/alien2_norm.png,0.734331013,resources/alien1_norm.png,0.288613638,0.4163,alien2,TRUE,2,0.354746052,76,1,0.734331013,x,0.6993,,,,,,,,,,,,,,,,,,,,,,,,,,,,,,,,,
GOSH_A12,2023-11-10_12h51.10.671,two_step_task_legacy,2022.2.4,Win32,59.66587112,2,learning,0,TRUE,TRUE,2,0.554564246,purple,x,0,122,122,122,1,0.327163232,0.735030185,0.458718952,0.712748711,FALSE,resources/alien3_norm.png,0.458718952,resources/alien4_norm.png,0.712748711,0.2666,alien4,TRUE,2,0.024360754,77,1,0.712748711,m,0.4736,,,,,,,,,,,,,,,,,,,,,,,,,,,,,,,,,
GOSH_A12,2023-11-10_12h51.10.671,two_step_task_legacy,2022.2.4,Win32,59.66587112,2,learning,1,TRUE,TRUE,3,0.780597841,red,x,0,123,123,123,1,0.325553926,0.735188606,0.414123906,0.707920788,TRUE,resources/alien2_norm.png,0.735188606,resources/alien1_norm.png,0.325553926,0.25,alien2,TRUE,2,0.025996897,78,1,0.735188606,x,0.608,,,,,,,,,,,,,,,,,,,,,,,,,,,,,,,,,
GOSH_A12,2023-11-10_12h51.10.671,two_step_task_legacy,2022.2.4,Win32,59.66587112,2,learning,0,TRUE,TRUE,2,0.127250181,purple,x,0,124,124,124,1,0.332284924,0.728011457,0.358787311,0.719523144,TRUE,resources/alien4_norm.png,0.719523144,resources/alien3_norm.png,0.358787311,0.2782,alien4,TRUE,2,0.097836524,79,1,0.719523144,x,0.4323,,,,,,,,,,,,,,,,,,,,,,,,,,,,,,,,,
GOSH_A12,2023-11-10_12h51.10.671,two_step_task_legacy,2022.2.4,Win32,59.66587112,2,learning,1,TRUE,TRUE,3,0.841949335,red,x,0,125,125,125,1,0.326093405,0.695840729,0.400002364,0.736399527,TRUE,resources/alien2_norm.png,0.695840729,resources/alien1_norm.png,0.326093405,0.2829,alien2,TRUE,2,0.429810122,80,1,0.695840729,x,0.5721,,,,,,,,,,,,,,,,,,,,,,,,,,,,,,,,,
GOSH_A12,2023-11-10_12h51.10.671,two_step_task_legacy,2022.2.4,Win32,59.66587112,2,learning,0,TRUE,TRUE,2,0.361850607,purple,x,0,126,126,126,1,0.323930204,0.660568372,0.427141787,0.734764761,TRUE,resources/alien4_norm.png,0.734764761,resources/alien3_norm.png,0.427141787,0.2662,alien4,TRUE,2,0.167302024,81,1,0.734764761,x,0.4141,,,,,,,,,,,,,,,,,,,,,,,,,,,,,,,,,
GOSH_A12,2023-11-10_12h51.10.671,two_step_task_legacy,2022.2.4,Win32,59.66587112,2,learning,0,TRUE,TRUE,2,0.685127598,purple,x,0,127,127,127,1,0.340229983,0.647692248,0.427069701,0.72143708,TRUE,resources/alien4_norm.png,0.72143708,resources/alien3_norm.png,0.427069701,0.2369,alien4,TRUE,2,0.058214849,82,1,0.72143708,x,0.5493,,,,,,,,,,,,,,,,,,,,,,,,,,,,,,,,,
GOSH_A12,2023-11-10_12h51.10.671,two_step_task_legacy,2022.2.4,Win32,59.66587112,2,learning,1,TRUE,TRUE,3,0.820259849,red,x,0,128,128,128,1,0.338813549,0.630816083,0.40499619,0.744385778,TRUE,resources/alien2_norm.png,0.630816083,resources/alien1_norm.png,0.338813549,0.2894,alien2,TRUE,2,0.538695559,83,1,0.630816083,x,0.5086,,,,,,,,,,,,,,,,,,,,,,,,,,,,,,,,,
GOSH_A12,2023-11-10_12h51.10.671,two_step_task_legacy,2022.2.4,Win32,59.66587112,2,learning,0,TRUE,TRUE,2,0.670367593,purple,x,0,129,129,129,1,0.336434737,0.661989018,0.444389232,0.724357321,TRUE,resources/alien4_norm.png,0.724357321,resources/alien3_norm.png,0.444389232,0.2781,alien4,TRUE,2,0.286330035,84,1,0.724357321,x,0.403,,,,,,,,,,,,,,,,,,,,,,,,,,,,,,,,,
GOSH_A12,2023-11-10_12h51.10.671,two_step_task_legacy,2022.2.4,Win32,59.66587112,2,learning,1,TRUE,TRUE,3,0.833636906,red,x,0,130,130,130,1,0.290559274,0.672971781,0.428715926,0.730204744,FALSE,resources/alien1_norm.png,0.290559274,resources/alien2_norm.png,0.672971781,0.384,alien2,TRUE,2,0.268977266,85,1,0.672971781,m,0.5617,,,,,,,,,,,,,,,,,,,,,,,,,,,,,,,,,
GOSH_A12,2023-11-10_12h51.10.671,two_step_task_legacy,2022.2.4,Win32,59.66587112,2,learning,0,TRUE,TRUE,2,0.372845388,purple,x,0,131,131,131,1,0.316122369,0.620277314,0.426712563,0.736924708,TRUE,resources/alien4_norm.png,0.736924708,resources/alien3_norm.png,0.426712563,0.2898,alien4,TRUE,2,0.392741501,86,1,0.736924708,x,0.384,,,,,,,,,,,,,,,,,,,,,,,,,,,,,,,,,
GOSH_A12,2023-11-10_12h51.10.671,two_step_task_legacy,2022.2.4,Win32,59.66587112,2,learning,0,TRUE,TRUE,2,0.128820313,purple,x,0,132,132,132,1,0.351537647,0.634556363,0.428806971,0.745455893,FALSE,resources/alien3_norm.png,0.428806971,resources/alien4_norm.png,0.745455893,0.3007,alien4,TRUE,2,0.035045779,87,1,0.745455893,m,0.6385,,,,,,,,,,,,,,,,,,,,,,,,,,,,,,,,,
GOSH_A12,2023-11-10_12h51.10.671,two_step_task_legacy,2022.2.4,Win32,59.66587112,2,learning,0,TRUE,TRUE,2,0.697407556,purple,x,0,133,133,133,1,0.36337083,0.630455363,0.393697106,0.746235282,TRUE,resources/alien4_norm.png,0.746235282,resources/alien3_norm.png,0.393697106,0.3333,alien4,TRUE,3,0.752633748,87,0,0.746235282,x,0.6207,,,,,,,,,,,,,,,,,,,,,,,,,,,,,,,,,
GOSH_A12,2023-11-10_12h51.10.671,two_step_task_legacy,2022.2.4,Win32,59.66587112,2,learning,0,TRUE,TRUE,2,0.031868515,purple,x,0,134,134,134,1,0.391533394,0.629464294,0.40193756,0.744542488,TRUE,resources/alien4_norm.png,0.744542488,resources/alien3_norm.png,0.40193756,0.3063,alien4,TRUE,2,0.472295366,88,1,0.744542488,x,0.4192,,,,,,,,,,,,,,,,,,,,,,,,,,,,,,,,,
GOSH_A12,2023-11-10_12h51.10.671,two_step_task_legacy,2022.2.4,Win32,59.66587112,2,learning,1,TRUE,TRUE,3,0.849915583,red,x,0,135,135,135,1,0.369719776,0.638245617,0.393998803,0.715176093,FALSE,resources/alien1_norm.png,0.369719776,resources/alien2_norm.png,0.638245617,0.2796,alien2,TRUE,2,0.402136061,89,1,0.638245617,m,0.7388,,,,,,,,,,,,,,,,,,,,,,,,,,,,,,,,,
GOSH_A12,2023-11-10_12h51.10.671,two_step_task_legacy,2022.2.4,Win32,59.66587112,2,learning,0,TRUE,TRUE,2,0.099307972,purple,x,0,136,136,136,1,0.366198559,0.649511756,0.413754202,0.707095008,TRUE,resources/alien4_norm.png,0.707095008,resources/alien3_norm.png,0.413754202,0.2171,alien4,TRUE,3,0.7700586,89,0,0.707095008,x,0.6172,,,,,,,,,,,,,,,,,,,,,,,,,,,,,,,,,
GOSH_A12,2023-11-10_12h51.10.671,two_step_task_legacy,2022.2.4,Win32,59.66587112,2,learning,1,TRUE,TRUE,3,0.968707701,red,x,0,137,137,137,1,0.382888211,0.652072629,0.397718097,0.712484856,TRUE,resources/alien2_norm.png,0.652072629,resources/alien1_norm.png,0.382888211,0.2006,alien2,TRUE,3,0.66707797,89,0,0.652072629,x,0.6108,,,,,,,,,,,,,,,,,,,,,,,,,,,,,,,,,
GOSH_A12,2023-11-10_12h51.10.671,two_step_task_legacy,2022.2.4,Win32,59.66587112,2,learning,1,TRUE,TRUE,3,0.93010112,red,x,0,138,138,138,1,0.343581066,0.668249043,0.403132479,0.693717942,TRUE,resources/alien2_norm.png,0.668249043,resources/alien1_norm.png,0.343581066,0.2478,alien2,TRUE,2,0.362429034,90,1,0.668249043,x,0.4176,,,,,,,,,,,,,,,,,,,,,,,,,,,,,,,,,
GOSH_A12,2023-11-10_12h51.10.671,two_step_task_legacy,2022.2.4,Win32,59.66587112,2,learning,0,TRUE,TRUE,2,0.602889676,purple,x,0,139,139,139,1,0.363838317,0.672524194,0.435461559,0.688514127,TRUE,resources/alien4_norm.png,0.688514127,resources/alien3_norm.png,0.435461559,0.2674,alien3,TRUE,3,0.874233019,90,0,0.435461559,m,1.2103,,,,,,,,,,,,,,,,,,,,,,,,,,,,,,,,,
GOSH_A12,2023-11-10_12h51.10.671,two_step_task_legacy,2022.2.4,Win32,59.66587112,2,learning,0,TRUE,TRUE,2,0.336206922,purple,x,0,140,140,140,1,0.379344852,0.710972025,0.439845091,0.693632034,TRUE,resources/alien4_norm.png,0.693632034,resources/alien3_norm.png,0.439845091,0.3825,alien4,TRUE,2,0.488453979,91,1,0.693632034,x,0.52,,,,,,,,,,,,,,,,,,,,,,,,,,,,,,,,,
GOSH_A12,2023-11-10_12h51.10.671,two_step_task_legacy,2022.2.4,Win32,59.66587112,2,learning,0,TRUE,TRUE,2,0.338128864,purple,x,0,141,141,141,1,0.373374152,0.729873496,0.431317014,0.69214813,TRUE,resources/alien4_norm.png,0.69214813,resources/alien3_norm.png,0.431317014,0.2998,alien4,TRUE,3,0.999834756,91,0,0.69214813,x,0.4727,,,,,,,,,,,,,,,,,,,,,,,,,,,,,,,,,
GOSH_A12,2023-11-10_12h51.10.671,two_step_task_legacy,2022.2.4,Win32,59.66587112,2,learning,0,TRUE,TRUE,2,0.214419439,purple,x,0,142,142,142,1,0.390669051,0.716383606,0.452030427,0.674123188,FALSE,resources/alien3_norm.png,0.452030427,resources/alien4_norm.png,0.674123188,0.0786,alien4,TRUE,2,0.286836446,92,1,0.674123188,m,0.6949,,,,,,,,,,,,,,,,,,,,,,,,,,,,,,,,,
GOSH_A12,2023-11-10_12h51.10.671,two_step_task_legacy,2022.2.4,Win32,59.66587112,2,learning,1,TRUE,TRUE,3,0.71777508,red,x,0,143,143,143,1,0.339477736,0.744969912,0.442360919,0.639333921,FALSE,resources/alien1_norm.png,0.339477736,resources/alien2_norm.png,0.744969912,0.275,alien2,TRUE,2,0.324728689,93,1,0.744969912,m,0.5443,,,,,,,,,,,,,,,,,,,,,,,,,,,,,,,,,
GOSH_A12,2023-11-10_12h51.10.671,two_step_task_legacy,2022.2.4,Win32,59.66587112,2,learning,0,TRUE,TRUE,2,0.601697862,purple,x,0,144,144,144,1,0.317803938,0.710844956,0.42051828,0.612593584,TRUE,resources/alien4_norm.png,0.612593584,resources/alien3_norm.png,0.42051828,0.2826,alien4,TRUE,2,0.287460387,94,1,0.612593584,x,0.5499,,,,,,,,,,,,,,,,,,,,,,,,,,,,,,,,,
GOSH_A12,2023-11-10_12h51.10.671,two_step_task_legacy,2022.2.4,Win32,59.66587112,2,learning,1,TRUE,TRUE,3,0.824158788,red,x,0,145,145,145,1,0.311104109,0.746481624,0.446044137,0.635215037,TRUE,resources/alien2_norm.png,0.746481624,resources/alien1_norm.png,0.311104109,0.3204,alien2,TRUE,2,0.704121135,95,1,0.746481624,x,0.4847,,,,,,,,,,,,,,,,,,,,,,,,,,,,,,,,,
GOSH_A12,2023-11-10_12h51.10.671,two_step_task_legacy,2022.2.4,Win32,59.66587112,2,learning,1,TRUE,TRUE,3,0.92827565,red,x,0,146,146,146,1,0.322435636,0.748817246,0.457400821,0.626838599,FALSE,resources/alien1_norm.png,0.322435636,resources/alien2_norm.png,0.748817246,0.2554,alien2,TRUE,2,0.229462908,96,1,0.748817246,m,0.6411,,,,,,,,,,,,,,,,,,,,,,,,,,,,,,,,,
GOSH_A12,2023-11-10_12h51.10.671,two_step_task_legacy,2022.2.4,Win32,59.66587112,2,learning,0,TRUE,TRUE,2,0.097408868,purple,x,0,147,147,147,1,0.311003061,0.708845948,0.444423405,0.604796627,TRUE,resources/alien4_norm.png,0.604796627,resources/alien3_norm.png,0.444423405,0.3575,alien4,TRUE,2,0.209391486,97,1,0.604796627,x,0.6441,,,,,,,,,,,,,,,,,,,,,,,,,,,,,,,,,
GOSH_A12,2023-11-10_12h51.10.671,two_step_task_legacy,2022.2.4,Win32,59.66587112,2,learning,0,TRUE,TRUE,2,0.446671053,purple,x,0,148,148,148,1,0.323921279,0.709213445,0.466381219,0.575008043,TRUE,resources/alien4_norm.png,0.575008043,resources/alien3_norm.png,0.466381219,0.2671,alien4,TRUE,2,0.100626274,98,1,0.575008043,x,0.5204,,,,,,,,,,,,,,,,,,,,,,,,,,,,,,,,,
GOSH_A12,2023-11-10_12h51.10.671,two_step_task_legacy,2022.2.4,Win32,59.66587112,2,learning,1,TRUE,TRUE,3,0.799833733,red,x,0,149,149,149,1,0.320184667,0.703134316,0.42955844,0.581290383,TRUE,resources/alien2_norm.png,0.703134316,resources/alien1_norm.png,0.320184667,0.287,alien2,TRUE,2,0.657361685,99,1,0.703134316,x,0.6931,,,,,,,,,,,,,,,,,,,,,,,,,,,,,,,,,
GOSH_A12,2023-11-10_12h51.10.671,two_step_task_legacy,2022.2.4,Win32,59.66587112,2,learning,1,TRUE,TRUE,3,0.930800383,red,x,0,150,150,150,1,0.3,0.7,0.4,0.6,FALSE,resources/alien1_norm.png,0.3,resources/alien2_norm.png,0.7,0.298,alien2,TRUE,3,0.962527119,99,0,0.7,m,0.5334,,,,,,,,,,,,,,,,,,,,,,,,,,,,,,,,,
GOSH_A12,2023-11-10_12h51.10.671,two_step_task_legacy,2022.2.4,Win32,59.66587112,2,learning,0,TRUE,TRUE,2,0.289497771,purple,x,0,151,151,151,1,0.3,0.7,0.4,0.6,TRUE,resources/alien4_norm.png,0.6,resources/alien3_norm.png,0.4,0.2837,alien4,TRUE,2,0.058508718,100,1,0.6,x,0.735,,,,,,,,,,,,,,,,,,,,,,,,,,,,,,,,,
GOSH_A12,2023-11-10_12h51.10.671,two_step_task_legacy,2022.2.4,Win32,59.66587112,2,learning,0,TRUE,TRUE,2,0.278743269,purple,x,0,152,152,152,1,0.3,0.7,0.4,0.6,TRUE,resources/alien4_norm.png,0.6,resources/alien3_norm.png,0.4,0.284,alien4,TRUE,3,0.931786019,100,0,0.6,x,0.5563,,,,,,,,,,,,,,,,,,,,,,,,,,,,,,,,,
GOSH_A12,2023-11-10_12h51.10.671,two_step_task_legacy,2022.2.4,Win32,59.66587112,2,learning,1,TRUE,TRUE,3,0.791808771,red,x,0,153,153,153,1,0.3,0.7,0.4,0.6,TRUE,resources/alien2_norm.png,0.7,resources/alien1_norm.png,0.3,0.2673,alien2,TRUE,2,0.386682424,101,1,0.7,x,0.6532,,,,,,,,,,,,,,,,,,,,,,,,,,,,,,,,,
GOSH_A12,2023-11-10_12h51.10.671,two_step_task_legacy,2022.2.4,Win32,59.66587112,2,learning,1,TRUE,TRUE,3,0.861030513,red,x,0,154,154,154,1,0.3,0.7,0.4,0.6,TRUE,resources/alien2_norm.png,0.7,resources/alien1_norm.png,0.3,0.255,alien2,TRUE,2,0.281181928,102,1,0.7,x,0.5511,,,,,,,,,,,,,,,,,,,,,,,,,,,,,,,,,
GOSH_A12,2023-11-10_12h51.10.671,two_step_task_legacy,2022.2.4,Win32,59.66587112,2,learning,0,TRUE,TRUE,2,0.284046391,purple,x,0,155,155,155,1,0.3,0.7,0.4,0.6,FALSE,resources/alien3_norm.png,0.4,resources/alien4_norm.png,0.6,0.2999,alien4,TRUE,2,0.099682938,103,1,0.6,m,0.8894,,,,,,,,,,,,,,,,,,,,,,,,,,,,,,,,,
GOSH_A12,2023-11-10_12h51.10.671,two_step_task_legacy,2022.2.4,Win32,59.66587112,2,learning,0,TRUE,TRUE,2,0.131053977,purple,x,0,156,156,156,1,0.3,0.7,0.4,0.6,FALSE,resources/alien3_norm.png,0.4,resources/alien4_norm.png,0.6,0.2604,alien4,TRUE,2,0.356063889,104,1,0.6,m,0.6899,,,,,,,,,,,,,,,,,,,,,,,,,,,,,,,,,
GOSH_A12,2023-11-10_12h51.10.671,two_step_task_legacy,2022.2.4,Win32,59.66587112,2,learning,1,TRUE,TRUE,3,0.749350759,red,x,0,157,157,157,1,0.3,0.7,0.4,0.6,TRUE,resources/alien2_norm.png,0.7,resources/alien1_norm.png,0.3,0.2948,alien2,TRUE,2,0.436335152,105,1,0.7,x,0.5765,,,,,,,,,,,,,,,,,,,,,,,,,,,,,,,,,
GOSH_A12,2023-11-10_12h51.10.671,two_step_task_legacy,2022.2.4,Win32,59.66587112,2,learning,1,TRUE,TRUE,3,0.949391143,red,x,0,158,158,158,1,0.3,0.7,0.4,0.6,TRUE,resources/alien2_norm.png,0.7,resources/alien1_norm.png,0.3,0.4181,alien2,TRUE,2,0.649121789,106,1,0.7,x,0.5923,,,,,,,,,,,,,,,,,,,,,,,,,,,,,,,,,
GOSH_A12,2023-11-10_12h51.10.671,two_step_task_legacy,2022.2.4,Win32,59.66587112,2,learning,0,TRUE,TRUE,2,0.475342414,purple,x,0,159,159,159,1,0.3,0.7,0.4,0.6,TRUE,resources/alien4_norm.png,0.6,resources/alien3_norm.png,0.4,0.2666,alien4,TRUE,3,0.781448614,106,0,0.6,x,0.5946,,,,,,,,,,,,,,,,,,,,,,,,,,,,,,,,,
GOSH_A12,2023-11-10_12h51.10.671,two_step_task_legacy,2022.2.4,Win32,59.66587112,2,learning,1,TRUE,TRUE,3,0.759593398,red,x,0,160,160,160,1,0.3,0.7,0.4,0.6,TRUE,resources/alien2_norm.png,0.7,resources/alien1_norm.png,0.3,0.2514,alien2,TRUE,3,0.809521737,106,0,0.7,x,0.5292,,,,,,,,,,,,,,,,,,,,,,,,,,,,,,,,,
GOSH_A12,2023-11-10_12h51.10.671,two_step_task_legacy,2022.2.4,Win32,59.66587112,2,learning,1,TRUE,TRUE,3,0.946096182,red,x,0,161,161,161,1,0.3,0.7,0.4,0.6,TRUE,resources/alien2_norm.png,0.7,resources/alien1_norm.png,0.3,0.2211,alien2,TRUE,2,0.390900892,107,1,0.7,x,0.4043,,,,,,,,,,,,,,,,,,,,,,,,,,,,,,,,,
GOSH_A12,2023-11-10_12h51.10.671,two_step_task_legacy,2022.2.4,Win32,59.66587112,2,learning,0,TRUE,TRUE,2,0.347090579,purple,x,0,162,162,162,1,0.3,0.7,0.4,0.6,TRUE,resources/alien4_norm.png,0.6,resources/alien3_norm.png,0.4,0.2571,alien4,TRUE,2,0.411396305,108,1,0.6,x,0.5866,,,,,,,,,,,,,,,,,,,,,,,,,,,,,,,,,
GOSH_A12,2023-11-10_12h51.10.671,two_step_task_legacy,2022.2.4,Win32,59.66587112,2,learning,0,TRUE,TRUE,2,0.693754733,purple,x,0,163,163,163,1,0.3,0.7,0.4,0.6,FALSE,resources/alien3_norm.png,0.4,resources/alien4_norm.png,0.6,0.3008,alien4,TRUE,2,0.330181068,109,1,0.6,m,1.2515,,,,,,,,,,,,,,,,,,,,,,,,,,,,,,,,,
GOSH_A12,2023-11-10_12h51.10.671,two_step_task_legacy,2022.2.4,Win32,59.66587112,2,learning,0,TRUE,TRUE,2,0.115599986,purple,x,0,164,164,164,1,0.3,0.7,0.4,0.6,TRUE,resources/alien4_norm.png,0.6,resources/alien3_norm.png,0.4,0.3218,alien4,TRUE,2,0.166357444,110,1,0.6,x,0.5459,,,,,,,,,,,,,,,,,,,,,,,,,,,,,,,,,
GOSH_A12,2023-11-10_12h51.10.671,two_step_task_legacy,2022.2.4,Win32,59.66587112,2,learning,0,TRUE,TRUE,2,0.38923947,purple,x,0,165,165,165,1,0.3,0.7,0.4,0.6,FALSE,resources/alien3_norm.png,0.4,resources/alien4_norm.png,0.6,0.2335,alien4,TRUE,3,0.675115573,110,0,0.6,m,0.5707,,,,,,,,,,,,,,,,,,,,,,,,,,,,,,,,,
GOSH_A12,2023-11-10_12h51.10.671,two_step_task_legacy,2022.2.4,Win32,59.66587112,2,learning,1,TRUE,TRUE,3,0.958151368,red,x,0,166,166,166,1,0.3,0.7,0.4,0.6,FALSE,resources/alien1_norm.png,0.3,resources/alien2_norm.png,0.7,0.2833,alien2,TRUE,2,0.140772401,111,1,0.7,m,0.8777,,,,,,,,,,,,,,,,,,,,,,,,,,,,,,,,,
GOSH_A12,2023-11-10_12h51.10.671,two_step_task_legacy,2022.2.4,Win32,59.66587112,2,learning,0,TRUE,TRUE,2,0.082172724,purple,x,0,167,167,167,1,0.3,0.7,0.4,0.6,TRUE,resources/alien4_norm.png,0.6,resources/alien3_norm.png,0.4,0.3607,alien4,TRUE,2,0.306156099,112,1,0.6,x,0.7364,,,,,,,,,,,,,,,,,,,,,,,,,,,,,,,,,
GOSH_A12,2023-11-10_12h51.10.671,two_step_task_legacy,2022.2.4,Win32,59.66587112,2,learning,0,TRUE,TRUE,2,0.638660666,purple,x,0,168,168,168,1,0.3,0.7,0.4,0.6,TRUE,resources/alien4_norm.png,0.6,resources/alien3_norm.png,0.4,0.5042,alien4,TRUE,2,0.14340732,113,1,0.6,x,0.7052,,,,,,,,,,,,,,,,,,,,,,,,,,,,,,,,,
GOSH_A12,2023-11-10_12h51.10.671,two_step_task_legacy,2022.2.4,Win32,59.66587112,2,learning,0,TRUE,TRUE,2,0.419131747,purple,x,0,169,169,169,1,0.3,0.7,0.4,0.6,TRUE,resources/alien4_norm.png,0.6,resources/alien3_norm.png,0.4,0.4792,alien4,TRUE,2,0.402852435,114,1,0.6,x,0.5829,,,,,,,,,,,,,,,,,,,,,,,,,,,,,,,,,
GOSH_A12,2023-11-10_12h51.10.671,two_step_task_legacy,2022.2.4,Win32,59.66587112,2,learning,0,TRUE,TRUE,2,0.592030836,purple,x,0,170,170,170,1,0.3,0.7,0.4,0.6,TRUE,resources/alien4_norm.png,0.6,resources/alien3_norm.png,0.4,0.3381,alien4,TRUE,2,0.039214609,115,1,0.6,x,0.5676,,,,,,,,,,,,,,,,,,,,,,,,,,,,,,,,,
GOSH_A12,2023-11-10_12h51.10.671,two_step_task_legacy,2022.2.4,Win32,59.66587112,2,learning,1,TRUE,TRUE,3,0.70504262,red,x,0,171,171,171,1,0.3,0.7,0.4,0.6,FALSE,resources/alien1_norm.png,0.3,resources/alien2_norm.png,0.7,0.3632,alien2,TRUE,2,0.311417692,116,1,0.7,m,0.9621,,,,,,,,,,,,,,,,,,,,,,,,,,,,,,,,,
GOSH_A12,2023-11-10_12h51.10.671,two_step_task_legacy,2022.2.4,Win32,59.66587112,2,learning,0,TRUE,TRUE,2,0.468969764,purple,x,0,172,172,172,1,0.3,0.7,0.4,0.6,FALSE,resources/alien3_norm.png,0.4,resources/alien4_norm.png,0.6,0.3447,alien4,TRUE,3,0.915925725,116,0,0.6,m,0.6088,,,,,,,,,,,,,,,,,,,,,,,,,,,,,,,,,
GOSH_A12,2023-11-10_12h51.10.671,two_step_task_legacy,2022.2.4,Win32,59.66587112,2,learning,0,TRUE,TRUE,2,0.534615052,purple,x,0,173,173,173,1,0.3,0.7,0.4,0.6,TRUE,resources/alien4_norm.png,0.6,resources/alien3_norm.png,0.4,0.3211,alien4,TRUE,3,0.88429302,116,0,0.6,x,0.4588,,,,,,,,,,,,,,,,,,,,,,,,,,,,,,,,,
GOSH_A12,2023-11-10_12h51.10.671,two_step_task_legacy,2022.2.4,Win32,59.66587112,2,learning,0,TRUE,TRUE,2,0.357419395,purple,x,0,174,174,174,1,0.3,0.7,0.4,0.6,FALSE,resources/alien3_norm.png,0.4,resources/alien4_norm.png,0.6,0.2831,alien4,TRUE,3,0.71536637,116,0,0.6,m,0.5392,,,,,,,,,,,,,,,,,,,,,,,,,,,,,,,,,
GOSH_A12,2023-11-10_12h51.10.671,two_step_task_legacy,2022.2.4,Win32,59.66587112,2,learning,0,TRUE,TRUE,2,0.625966465,purple,x,0,175,175,175,1,0.3,0.7,0.4,0.6,TRUE,resources/alien4_norm.png,0.6,resources/alien3_norm.png,0.4,0.2543,alien3,TRUE,2,0.163269311,117,1,0.4,m,0.6896,,,,,,,,,,,,,,,,,,,,,,,,,,,,,,,,,
GOSH_A12,2023-11-10_12h51.10.671,two_step_task_legacy,2022.2.4,Win32,59.66587112,2,learning,1,TRUE,TRUE,3,0.794002326,red,x,0,176,176,176,1,0.3,0.7,0.4,0.6,FALSE,resources/alien1_norm.png,0.3,resources/alien2_norm.png,0.7,0.2631,alien2,TRUE,3,0.706961553,117,0,0.7,m,0.7203,,,,,,,,,,,,,,,,,,,,,,,,,,,,,,,,,
GOSH_A12,2023-11-10_12h51.10.671,two_step_task_legacy,2022.2.4,Win32,59.66587112,2,learning,1,TRUE,TRUE,3,0.720275614,red,x,0,177,177,177,1,0.3,0.7,0.4,0.6,TRUE,resources/alien2_norm.png,0.7,resources/alien1_norm.png,0.3,0.253,alien2,TRUE,2,0.555043043,118,1,0.7,x,0.7175,,,,,,,,,,,,,,,,,,,,,,,,,,,,,,,,,
GOSH_A12,2023-11-10_12h51.10.671,two_step_task_legacy,2022.2.4,Win32,59.66587112,2,learning,0,TRUE,TRUE,2,0.287027895,purple,x,0,178,178,178,1,0.3,0.7,0.4,0.6,FALSE,resources/alien3_norm.png,0.4,resources/alien4_norm.png,0.6,0.2715,alien3,TRUE,2,0.000955555,119,1,0.4,x,0.77,,,,,,,,,,,,,,,,,,,,,,,,,,,,,,,,,
GOSH_A12,2023-11-10_12h51.10.671,two_step_task_legacy,2022.2.4,Win32,59.66587112,2,learning,0,TRUE,TRUE,2,0.317656051,purple,x,0,179,179,179,1,0.3,0.7,0.4,0.6,TRUE,resources/alien4_norm.png,0.6,resources/alien3_norm.png,0.4,0.2812,alien3,TRUE,3,0.921005694,119,0,0.4,m,0.6168,,,,,,,,,,,,,,,,,,,,,,,,,,,,,,,,,
GOSH_A12,2023-11-10_12h51.10.671,two_step_task_legacy,2022.2.4,Win32,59.66587112,2,learning,0,TRUE,TRUE,2,0.533225798,purple,x,0,180,180,180,1,0.3,0.7,0.4,0.6,FALSE,resources/alien3_norm.png,0.4,resources/alien4_norm.png,0.6,0.2664,alien4,TRUE,3,0.992486431,119,0,0.6,m,0.6656,,,,,,,,,,,,,,,,,,,,,,,,,,,,,,,,,
GOSH_A12,2023-11-10_12h51.10.671,two_step_task_legacy,2022.2.4,Win32,59.66587112,2,learning,1,TRUE,TRUE,3,0.878909778,red,x,0,181,181,181,1,0.3,0.7,0.4,0.6,FALSE,resources/alien1_norm.png,0.3,resources/alien2_norm.png,0.7,0.2312,alien2,TRUE,2,0.667335237,120,1,0.7,m,0.8699,,,,,,,,,,,,,,,,,,,,,,,,,,,,,,,,,
GOSH_A12,2023-11-10_12h51.10.671,two_step_task_legacy,2022.2.4,Win32,59.66587112,2,learning,0,TRUE,TRUE,3,0.494899298,red,m,0,182,182,182,1,0.3,0.7,0.4,0.6,FALSE,resources/alien1_norm.png,0.3,resources/alien2_norm.png,0.7,0.3031,alien2,TRUE,3,0.952912349,120,0,0.7,m,0.546,,,,,,,,,,,,,,,,,,,,,,,,,,,,,,,,,
GOSH_A12,2023-11-10_12h51.10.671,two_step_task_legacy,2022.2.4,Win32,59.66587112,2,learning,0,TRUE,TRUE,3,0.558050515,red,m,0,183,183,183,1,0.3,0.7,0.4,0.6,FALSE,resources/alien1_norm.png,0.3,resources/alien2_norm.png,0.7,0.2611,alien2,TRUE,2,0.11372821,121,1,0.7,m,0.4008,,,,,,,,,,,,,,,,,,,,,,,,,,,,,,,,,
GOSH_A12,2023-11-10_12h51.10.671,two_step_task_legacy,2022.2.4,Win32,59.66587112,2,learning,1,TRUE,TRUE,2,0.982712675,purple,m,0,184,184,184,1,0.3,0.7,0.4,0.6,TRUE,resources/alien4_norm.png,0.6,resources/alien3_norm.png,0.4,0.2215,alien3,TRUE,3,0.495523762,121,0,0.4,m,1.3104,,,,,,,,,,,,,,,,,,,,,,,,,,,,,,,,,
GOSH_A12,2023-11-10_12h51.10.671,two_step_task_legacy,2022.2.4,Win32,59.66587112,2,learning,1,TRUE,TRUE,2,0.776673468,purple,m,0,185,185,185,1,0.3,0.7,0.4,0.6,FALSE,resources/alien3_norm.png,0.4,resources/alien4_norm.png,0.6,0.2145,alien4,TRUE,3,0.720319748,121,0,0.6,m,0.5603,,,,,,,,,,,,,,,,,,,,,,,,,,,,,,,,,
GOSH_A12,2023-11-10_12h51.10.671,two_step_task_legacy,2022.2.4,Win32,59.66587112,2,learning,1,TRUE,TRUE,2,0.728921743,purple,m,0,186,186,186,1,0.3,0.7,0.4,0.6,FALSE,resources/alien3_norm.png,0.4,resources/alien4_norm.png,0.6,0.0496,alien4,TRUE,2,0.288479006,122,1,0.6,m,0.4875,,,,,,,,,,,,,,,,,,,,,,,,,,,,,,,,,
GOSH_A12,2023-11-10_12h51.10.671,two_step_task_legacy,2022.2.4,Win32,59.66587112,2,learning,0,TRUE,TRUE,3,0.15741132,red,m,0,187,187,187,1,0.3,0.7,0.4,0.6,TRUE,resources/alien2_norm.png,0.7,resources/alien1_norm.png,0.3,0.2627,alien2,TRUE,2,0.586587068,123,1,0.7,x,0.4776,,,,,,,,,,,,,,,,,,,,,,,,,,,,,,,,,
GOSH_A12,2023-11-10_12h51.10.671,two_step_task_legacy,2022.2.4,Win32,59.66587112,2,learning,0,TRUE,TRUE,3,0.48959455,red,m,0,188,188,188,1,0.3,0.7,0.4,0.6,TRUE,resources/alien2_norm.png,0.7,resources/alien1_norm.png,0.3,0.3006,alien2,TRUE,2,0.445670676,124,1,0.7,x,0.4507,,,,,,,,,,,,,,,,,,,,,,,,,,,,,,,,,
GOSH_A12,2023-11-10_12h51.10.671,two_step_task_legacy,2022.2.4,Win32,59.66587112,2,learning,0,TRUE,TRUE,3,0.067200317,red,m,0,189,189,189,1,0.3,0.7,0.4,0.6,TRUE,resources/alien2_norm.png,0.7,resources/alien1_norm.png,0.3,0.2937,alien2,TRUE,2,0.064240271,125,1,0.7,x,0.5276,,,,,,,,,,,,,,,,,,,,,,,,,,,,,,,,,
GOSH_A12,2023-11-10_12h51.10.671,two_step_task_legacy,2022.2.4,Win32,59.66587112,2,learning,1,TRUE,TRUE,2,0.999819993,purple,m,0,190,190,190,1,0.3,0.7,0.4,0.6,FALSE,resources/alien3_norm.png,0.4,resources/alien4_norm.png,0.6,0.2583,alien4,TRUE,3,0.74436263,125,0,0.6,m,0.4611,,,,,,,,,,,,,,,,,,,,,,,,,,,,,,,,,
GOSH_A12,2023-11-10_12h51.10.671,two_step_task_legacy,2022.2.4,Win32,59.66587112,2,learning,0,TRUE,TRUE,2,0.235310374,purple,x,0,191,191,191,1,0.3,0.7,0.4,0.6,FALSE,resources/alien3_norm.png,0.4,resources/alien4_norm.png,0.6,0.9275,alien4,TRUE,3,0.722671298,125,0,0.6,m,0.6034,,,,,,,,,,,,,,,,,,,,,,,,,,,,,,,,,
GOSH_A12,2023-11-10_12h51.10.671,two_step_task_legacy,2022.2.4,Win32,59.66587112,2,learning,0,TRUE,TRUE,3,0.311060287,red,m,0,192,192,192,1,0.3,0.7,0.4,0.6,FALSE,resources/alien1_norm.png,0.3,resources/alien2_norm.png,0.7,0.2166,alien2,TRUE,2,0.12576094,126,1,0.7,m,0.5334,,,,,,,,,,,,,,,,,,,,,,,,,,,,,,,,,
GOSH_A12,2023-11-10_12h51.10.671,two_step_task_legacy,2022.2.4,Win32,59.66587112,2,learning,0,TRUE,TRUE,3,0.465574753,red,m,0,193,193,193,1,0.3,0.7,0.4,0.6,FALSE,resources/alien1_norm.png,0.3,resources/alien2_norm.png,0.7,0.2664,alien2,TRUE,2,0.087767274,127,1,0.7,m,0.4528,,,,,,,,,,,,,,,,,,,,,,,,,,,,,,,,,
GOSH_A12,2023-11-10_12h51.10.671,two_step_task_legacy,2022.2.4,Win32,59.66587112,2,learning,0,TRUE,TRUE,3,0.22556464,red,m,0,194,194,194,1,0.3,0.7,0.4,0.6,FALSE,resources/alien1_norm.png,0.3,resources/alien2_norm.png,0.7,0.3147,alien2,TRUE,2,0.674203695,128,1,0.7,m,0.3833,,,,,,,,,,,,,,,,,,,,,,,,,,,,,,,,,
GOSH_A12,2023-11-10_12h51.10.671,two_step_task_legacy,2022.2.4,Win32,59.66587112,2,learning,0,TRUE,TRUE,3,0.083889902,red,m,0,195,195,195,1,0.3,0.7,0.4,0.6,TRUE,resources/alien2_norm.png,0.7,resources/alien1_norm.png,0.3,0.2339,alien2,TRUE,2,0.128653717,129,1,0.7,x,0.5241,,,,,,,,,,,,,,,,,,,,,,,,,,,,,,,,,
GOSH_A12,2023-11-10_12h51.10.671,two_step_task_legacy,2022.2.4,Win32,59.66587112,2,learning,0,TRUE,TRUE,3,0.625939081,red,m,0,196,196,196,1,0.3,0.7,0.4,0.6,FALSE,resources/alien1_norm.png,0.3,resources/alien2_norm.png,0.7,0.2945,alien2,TRUE,2,0.06623549,130,1,0.7,m,0.3838,,,,,,,,,,,,,,,,,,,,,,,,,,,,,,,,,
GOSH_A12,2023-11-10_12h51.10.671,two_step_task_legacy,2022.2.4,Win32,59.66587112,2,learning,0,TRUE,TRUE,3,0.325367318,red,m,0,197,197,197,1,0.3,0.7,0.4,0.6,FALSE,resources/alien1_norm.png,0.3,resources/alien2_norm.png,0.7,0.2832,alien2,TRUE,2,0.41588058,131,1,0.7,m,0.5644,,,,,,,,,,,,,,,,,,,,,,,,,,,,,,,,,
GOSH_A12,2023-11-10_12h51.10.671,two_step_task_legacy,2022.2.4,Win32,59.66587112,2,learning,1,TRUE,TRUE,2,0.731842698,purple,m,0,198,198,198,1,0.3,0.7,0.4,0.6,FALSE,resources/alien3_norm.png,0.4,resources/alien4_norm.png,0.6,0.3645,alien3,TRUE,3,0.774765383,131,0,0.4,x,1.087,,,,,,,,,,,,,,,,,,,,,,,,,,,,,,,,,
GOSH_A12,2023-11-10_12h51.10.671,two_step_task_legacy,2022.2.4,Win32,59.66587112,2,learning,0,TRUE,TRUE,3,0.614856944,red,m,0,199,199,199,1,0.3,0.7,0.4,0.6,TRUE,resources/alien2_norm.png,0.7,resources/alien1_norm.png,0.3,0.2405,alien2,TRUE,2,0.657087797,132,1,0.7,x,0.6737,,,,,,,,,,,,,,,,,,,,,,,,,,,,,,,,,
GOSH_A12,2023-11-10_12h51.10.671,two_step_task_legacy,2022.2.4,Win32,59.66587112,2,learning,0,TRUE,TRUE,3,0.425879758,red,m,0,200,200,200,1,0.3,0.7,0.4,0.6,FALSE,resources/alien1_norm.png,0.3,resources/alien2_norm.png,0.7,0.2664,alien2,TRUE,2,0.025303812,133,1,0.7,m,0.4899,,,,,,,,,,,,,,,,,,,,,,,,,,,,,,,,,
GOSH_A12,2023-11-10_12h51.10.671,two_step_task_legacy,2022.2.4,Win32,59.66587112,2,learning,1,TRUE,TRUE,2,0.75180157,purple,m,0,201,201,201,1,0.3,0.7,0.4,0.6,FALSE,resources/alien3_norm.png,0.4,resources/alien4_norm.png,0.6,0.3086,alien4,TRUE,2,0.211763851,134,1,0.6,m,0.7552,,,,,,,,,,,,,,,,,,,,,,,,,,,,,,,,,
GOSH_A12,2023-11-10_12h51.10.671,two_step_task_legacy,2022.2.4,Win32,59.66587112,2,learning,1,TRUE,TRUE,2,0.814146656,purple,m,0,202,202,202,1,0.3,0.7,0.4,0.6,FALSE,resources/alien3_norm.png,0.4,resources/alien4_norm.png,0.6,0.211,alien4,TRUE,2,0.177823281,135,1,0.6,m,0.5294,,,,,,,,,,,,,,,,,,,,,,,,,,,,,,,,,
GOSH_A12,2023-11-10_12h51.10.671,two_step_task_legacy,2022.2.4,Win32,59.66587112,2,learning,1,TRUE,TRUE,2,0.845897573,purple,m,0,203,203,203,1,0.3,0.7,0.4,0.6,TRUE,resources/alien4_norm.png,0.6,resources/alien3_norm.png,0.4,0.2559,alien4,TRUE,2,0.483990617,136,1,0.6,x,0.5233,,,,,,,,,,,,,,,,,,,,,,,,,,,,,,,,,
GOSH_A12,2023-11-10_12h51.10.671,two_step_task_legacy,2022.2.4,Win32,59.66587112,2,learning,0,TRUE,TRUE,3,0.238504841,red,m,0,204,204,204,1,0.3,0.7,0.4,0.6,FALSE,resources/alien1_norm.png,0.3,resources/alien2_norm.png,0.7,0.3012,alien2,TRUE,2,0.058953677,137,1,0.7,m,0.6765,,,,,,,,,,,,,,,,,,,,,,,,,,,,,,,,,
GOSH_A12,2023-11-10_12h51.10.671,two_step_task_legacy,2022.2.4,Win32,59.66587112,2,learning,0,TRUE,TRUE,3,0.01244595,red,m,0,205,205,205,1,0.3,0.7,0.4,0.6,TRUE,resources/alien2_norm.png,0.7,resources/alien1_norm.png,0.3,0.2647,alien2,TRUE,3,0.819735273,137,0,0.7,x,0.5291,,,,,,,,,,,,,,,,,,,,,,,,,,,,,,,,,
GOSH_A12,2023-11-10_12h51.10.671,two_step_task_legacy,2022.2.4,Win32,59.66587112,2,learning,0,TRUE,TRUE,3,0.053796395,red,m,0,206,206,206,1,0.3,0.7,0.4,0.6,TRUE,resources/alien2_norm.png,0.7,resources/alien1_norm.png,0.3,0.2557,alien2,TRUE,2,0.359219376,138,1,0.7,x,0.3746,,,,,,,,,,,,,,,,,,,,,,,,,,,,,,,,,
GOSH_A12,2023-11-10_12h51.10.671,two_step_task_legacy,2022.2.4,Win32,59.66587112,2,learning,0,TRUE,TRUE,3,0.626614328,red,m,0,207,207,207,1,0.3,0.7,0.4,0.6,FALSE,resources/alien1_norm.png,0.3,resources/alien2_norm.png,0.7,0.248,alien2,TRUE,3,0.771318823,138,0,0.7,m,0.5006,,,,,,,,,,,,,,,,,,,,,,,,,,,,,,,,,
GOSH_A12,2023-11-10_12h51.10.671,two_step_task_legacy,2022.2.4,Win32,59.66587112,2,learning,1,TRUE,TRUE,3,0.789586626,red,x,0,208,208,208,1,0.3,0.7,0.4,0.6,FALSE,resources/alien1_norm.png,0.3,resources/alien2_norm.png,0.7,0.2489,alien2,TRUE,2,0.065620795,139,1,0.7,m,0.5237,,,,,,,,,,,,,,,,,,,,,,,,,,,,,,,,,
GOSH_A12,2023-11-10_12h51.10.671,two_step_task_legacy,2022.2.4,Win32,59.66587112,2,learning,0,TRUE,TRUE,2,0.557981411,purple,x,0,209,209,209,1,0.3,0.7,0.4,0.6,TRUE,resources/alien4_norm.png,0.6,resources/alien3_norm.png,0.4,0.2979,alien4,TRUE,2,0.596665385,140,1,0.6,x,0.4762,,,,,,,,,,,,,,,,,,,,,,,,,,,,,,,,,
GOSH_A12,2023-11-10_12h51.10.671,two_step_task_legacy,2022.2.4,Win32,59.66587112,2,learning,0,TRUE,TRUE,2,0.643770301,purple,x,0,210,210,210,1,0.3,0.7,0.4,0.6,TRUE,resources/alien4_norm.png,0.6,resources/alien3_norm.png,0.4,0.2411,alien4,TRUE,2,0.069577596,141,1,0.6,x,0.4184,,,,,,,,,,,,,,,,,,,,,,,,,,,,,,,,,
GOSH_A12,2023-11-10_12h51.10.671,two_step_task_legacy,2022.2.4,Win32,59.66587112,2,learning,0,TRUE,TRUE,2,0.653040179,purple,x,0,211,211,211,1,0.3,0.7,0.4,0.6,TRUE,resources/alien4_norm.png,0.6,resources/alien3_norm.png,0.4,0.3498,alien4,TRUE,3,0.773702912,141,0,0.6,x,0.4176,,,,,,,,,,,,,,,,,,,,,,,,,,,,,,,,,
GOSH_A12,2023-11-10_12h51.10.671,two_step_task_legacy,2022.2.4,Win32,59.66587112,2,learning,0,TRUE,TRUE,2,0.493034496,purple,x,0,212,212,212,1,0.3,0.7,0.4,0.6,FALSE,resources/alien3_norm.png,0.4,resources/alien4_norm.png,0.6,0.3201,alien4,TRUE,2,0.372757066,142,1,0.6,m,0.4126,,,,,,,,,,,,,,,,,,,,,,,,,,,,,,,,,
GOSH_A12,2023-11-10_12h51.10.671,two_step_task_legacy,2022.2.4,Win32,59.66587112,2,learning,0,TRUE,TRUE,2,0.492758319,purple,x,0,213,213,213,1,0.3,0.7,0.4,0.6,FALSE,resources/alien3_norm.png,0.4,resources/alien4_norm.png,0.6,0.3314,alien4,TRUE,2,0.251028464,143,1,0.6,m,0.4399,,,,,,,,,,,,,,,,,,,,,,,,,,,,,,,,,
GOSH_A12,2023-11-10_12h51.10.671,two_step_task_legacy,2022.2.4,Win32,59.66587112,2,learning,0,TRUE,TRUE,2,0.488701733,purple,x,0,214,214,214,1,0.3,0.7,0.4,0.6,TRUE,resources/alien4_norm.png,0.6,resources/alien3_norm.png,0.4,0.2857,alien4,TRUE,2,0.237014414,144,1,0.6,x,0.4987,,,,,,,,,,,,,,,,,,,,,,,,,,,,,,,,,
GOSH_A12,2023-11-10_12h51.10.671,two_step_task_legacy,2022.2.4,Win32,59.66587112,2,learning,0,TRUE,TRUE,2,0.428219577,purple,x,0,215,215,215,1,0.3,0.7,0.4,0.6,TRUE,resources/alien4_norm.png,0.6,resources/alien3_norm.png,0.4,0.3087,alien4,TRUE,3,0.675136923,144,0,0.6,x,0.5514,,,,,,,,,,,,,,,,,,,,,,,,,,,,,,,,,
GOSH_A12,2023-11-10_12h51.10.671,two_step_task_legacy,2022.2.4,Win32,59.66587112,2,learning,0,TRUE,TRUE,2,0.18059694,purple,x,0,216,216,216,1,0.3,0.7,0.4,0.6,FALSE,resources/alien3_norm.png,0.4,resources/alien4_norm.png,0.6,0.3028,alien4,TRUE,2,0.43319439,145,1,0.6,m,0.4206,,,,,,,,,,,,,,,,,,,,,,,,,,,,,,,,,
GOSH_A12,2023-11-10_12h51.10.671,two_step_task_legacy,2022.2.4,Win32,59.66587112,2,learning,0,TRUE,TRUE,2,0.195414716,purple,x,0,217,217,217,1,0.3,0.7,0.4,0.6,FALSE,resources/alien3_norm.png,0.4,resources/alien4_norm.png,0.6,0.3367,alien4,TRUE,3,0.788152645,145,0,0.6,m,0.3997,,,,,,,,,,,,,,,,,,,,,,,,,,,,,,,,,
GOSH_A12,2023-11-10_12h51.10.671,two_step_task_legacy,2022.2.4,Win32,59.66587112,2,learning,1,TRUE,TRUE,2,0.880246413,purple,m,0,218,218,218,1,0.3,0.7,0.4,0.6,TRUE,resources/alien4_norm.png,0.6,resources/alien3_norm.png,0.4,0.073,alien4,TRUE,2,0.136507635,146,1,0.6,x,0.5332,,,,,,,,,,,,,,,,,,,,,,,,,,,,,,,,,
GOSH_A12,2023-11-10_12h51.10.671,two_step_task_legacy,2022.2.4,Win32,59.66587112,2,learning,0,TRUE,TRUE,3,0.271951023,red,m,0,219,219,219,1,0.3,0.7,0.4,0.6,FALSE,resources/alien1_norm.png,0.3,resources/alien2_norm.png,0.7,0.2528,alien2,TRUE,2,0.359764961,147,1,0.7,m,0.4836,,,,,,,,,,,,,,,,,,,,,,,,,,,,,,,,,
GOSH_A12,2023-11-10_12h51.10.671,two_step_task_legacy,2022.2.4,Win32,59.66587112,2,learning,1,TRUE,TRUE,2,0.955517164,purple,m,0,220,220,220,1,0.3,0.7,0.4,0.6,FALSE,resources/alien3_norm.png,0.4,resources/alien4_norm.png,0.6,0.2616,alien4,TRUE,2,0.174310865,148,1,0.6,m,1.1232,,,,,,,,,,,,,,,,,,,,,,,,,,,,,,,,,
GOSH_A12,2023-11-10_12h51.10.671,two_step_task_legacy,2022.2.4,Win32,59.66587112,2,learning,1,TRUE,TRUE,2,0.778936758,purple,m,0,221,221,221,1,0.3,0.7,0.4,0.6,TRUE,resources/alien4_norm.png,0.6,resources/alien3_norm.png,0.4,0.234,alien4,TRUE,2,0.456200793,149,1,0.6,x,0.4534,,,,,,,,,,,,,,,,,,,,,,,,,,,,,,,,,
GOSH_A12,2023-11-10_12h51.10.671,two_step_task_legacy,2022.2.4,Win32,59.66587112,2,learning,1,TRUE,TRUE,2,0.864366702,purple,m,0,222,222,222,1,0.3,0.7,0.4,0.6,TRUE,resources/alien4_norm.png,0.6,resources/alien3_norm.png,0.4,0.2586,alien4,TRUE,2,0.589224368,150,1,0.6,x,0.4495,,,,,,,,,,,,,,,,,,,,,,,,,,,,,,,,,
GOSH_A12,2023-11-10_12h51.10.671,two_step_task_legacy,2022.2.4,Win32,59.66587112,2,learning,0,TRUE,TRUE,3,0.040455968,red,m,0,223,223,223,1,0.3,0.7,0.4,0.6,FALSE,resources/alien1_norm.png,0.3,resources/alien2_norm.png,0.7,0.218,alien2,TRUE,2,0.536762248,151,1,0.7,m,0.5913,,,,,,,,,,,,,,,,,,,,,,,,,,,,,,,,,
GOSH_A12,2023-11-10_12h51.10.671,two_step_task_legacy,2022.2.4,Win32,59.66587112,2,learning,0,TRUE,TRUE,3,0.111798247,red,m,0,224,224,224,1,0.3,0.7,0.4,0.6,FALSE,resources/alien1_norm.png,0.3,resources/alien2_norm.png,0.7,0.238,alien2,TRUE,3,0.859313902,151,0,0.7,m,0.423,,,,,,,,,,,,,,,,,,,,,,,,,,,,,,,,,
GOSH_A12,2023-11-10_12h51.10.671,two_step_task_legacy,2022.2.4,Win32,59.66587112,2,learning,0,TRUE,TRUE,2,0.288925714,purple,x,0,225,225,225,1,0.3,0.7,0.4,0.6,FALSE,resources/alien3_norm.png,0.4,resources/alien4_norm.png,0.6,0.5876,alien4,TRUE,3,0.742117666,151,0,0.6,m,0.4667,,,,,,,,,,,,,,,,,,,,,,,,,,,,,,,,,
GOSH_A12,2023-11-10_12h51.10.671,two_step_task_legacy,2022.2.4,Win32,59.66587112,2,learning,0,TRUE,TRUE,2,0.221677875,purple,x,0,226,226,226,1,0.3,0.7,0.4,0.6,FALSE,resources/alien3_norm.png,0.4,resources/alien4_norm.png,0.6,0.5512,alien4,TRUE,2,0.35203205,152,1,0.6,m,0.3723,,,,,,,,,,,,,,,,,,,,,,,,,,,,,,,,,
GOSH_A12,2023-11-10_12h51.10.671,two_step_task_legacy,2022.2.4,Win32,59.66587112,2,learning,0,TRUE,TRUE,2,0.629591079,purple,x,0,227,227,227,1,0.3,0.7,0.4,0.6,FALSE,resources/alien3_norm.png,0.4,resources/alien4_norm.png,0.6,0.2943,alien4,TRUE,2,0.154286964,153,1,0.6,m,0.384,,,,,,,,,,,,,,,,,,,,,,,,,,,,,,,,,
GOSH_A12,2023-11-10_12h51.10.671,two_step_task_legacy,2022.2.4,Win32,59.66587112,2,learning,0,TRUE,TRUE,2,0.051607316,purple,x,0,228,228,228,1,0.3,0.7,0.4,0.6,FALSE,resources/alien3_norm.png,0.4,resources/alien4_norm.png,0.6,0.2946,alien4,TRUE,3,0.961220844,153,0,0.6,m,0.3939,,,,,,,,,,,,,,,,,,,,,,,,,,,,,,,,,
GOSH_A12,2023-11-10_12h51.10.671,two_step_task_legacy,2022.2.4,Win32,59.66587112,2,learning,0,TRUE,TRUE,2,0.31138965,purple,x,0,229,229,229,1,0.3,0.7,0.4,0.6,TRUE,resources/alien4_norm.png,0.6,resources/alien3_norm.png,0.4,0.4862,alien4,TRUE,2,0.232374133,154,1,0.6,x,0.6327,,,,,,,,,,,,,,,,,,,,,,,,,,,,,,,,,
GOSH_A12,2023-11-10_12h51.10.671,two_step_task_legacy,2022.2.4,Win32,59.66587112,2,learning,1,TRUE,TRUE,3,0.801602927,red,x,0,230,230,230,1,0.3,0.7,0.4,0.6,TRUE,resources/alien2_norm.png,0.7,resources/alien1_norm.png,0.3,0.2268,alien2,TRUE,3,0.838587776,154,0,0.7,x,0.4832,,,,,,,,,,,,,,,,,,,,,,,,,,,,,,,,,
GOSH_A12,2023-11-10_12h51.10.671,two_step_task_legacy,2022.2.4,Win32,59.66587112,2,learning,0,TRUE,TRUE,3,0.147825866,red,m,0,231,231,231,1,0.3,0.7,0.4,0.6,TRUE,resources/alien2_norm.png,0.7,resources/alien1_norm.png,0.3,0.3006,alien1,TRUE,3,0.491676278,154,0,0.3,m,0.8121,,,,,,,,,,,,,,,,,,,,,,,,,,,,,,,,,
GOSH_A12,2023-11-10_12h51.10.671,two_step_task_legacy,2022.2.4,Win32,59.66587112,2,learning,0,TRUE,TRUE,3,0.29235042,red,m,0,232,232,232,1,0.3,0.7,0.4,0.6,FALSE,resources/alien1_norm.png,0.3,resources/alien2_norm.png,0.7,0.2103,alien1,TRUE,3,0.99264941,154,0,0.3,x,0.3341,,,,,,,,,,,,,,,,,,,,,,,,,,,,,,,,,
GOSH_A12,2023-11-10_12h51.10.671,two_step_task_legacy,2022.2.4,Win32,59.66587112,2,learning,1,TRUE,TRUE,2,0.74564064,purple,m,0,233,233,233,1,0.3,0.7,0.4,0.6,TRUE,resources/alien4_norm.png,0.6,resources/alien3_norm.png,0.4,0.2507,alien4,TRUE,3,0.823854872,154,0,0.6,x,0.7503,,,,,,,,,,,,,,,,,,,,,,,,,,,,,,,,,
GOSH_A12,2023-11-10_12h51.10.671,two_step_task_legacy,2022.2.4,Win32,59.66587112,2,learning,0,TRUE,TRUE,3,0.14946345,red,m,0,234,234,234,1,0.3,0.7,0.4,0.6,TRUE,resources/alien2_norm.png,0.7,resources/alien1_norm.png,0.3,0.3115,alien2,TRUE,3,0.920678272,154,0,0.7,x,0.4501,,,,,,,,,,,,,,,,,,,,,,,,,,,,,,,,,
GOSH_A12,2023-11-10_12h51.10.671,two_step_task_legacy,2022.2.4,Win32,59.66587112,2,learning,1,TRUE,TRUE,3,0.861376771,red,x,0,235,235,235,1,0.3,0.7,0.4,0.6,FALSE,resources/alien1_norm.png,0.3,resources/alien2_norm.png,0.7,0.2841,alien2,TRUE,2,0.459842236,155,1,0.7,m,0.501,,,,,,,,,,,,,,,,,,,,,,,,,,,,,,,,,
GOSH_A12,2023-11-10_12h51.10.671,two_step_task_legacy,2022.2.4,Win32,59.66587112,2,learning,0,TRUE,TRUE,2,0.414389344,purple,x,0,236,236,236,1,0.3,0.7,0.4,0.6,FALSE,resources/alien3_norm.png,0.4,resources/alien4_norm.png,0.6,0.2111,alien4,TRUE,2,0.403708753,156,1,0.6,m,0.4838,,,,,,,,,,,,,,,,,,,,,,,,,,,,,,,,,
GOSH_A12,2023-11-10_12h51.10.671,two_step_task_legacy,2022.2.4,Win32,59.66587112,2,learning,0,TRUE,TRUE,2,0.39168327,purple,x,0,237,237,237,1,0.3,0.7,0.4,0.6,TRUE,resources/alien4_norm.png,0.6,resources/alien3_norm.png,0.4,0.2459,alien4,TRUE,2,0.475391564,157,1,0.6,x,0.6283,,,,,,,,,,,,,,,,,,,,,,,,,,,,,,,,,
GOSH_A12,2023-11-10_12h51.10.671,two_step_task_legacy,2022.2.4,Win32,59.66587112,2,learning,0,TRUE,TRUE,2,0.231031436,purple,x,0,238,238,238,1,0.3,0.7,0.4,0.6,TRUE,resources/alien4_norm.png,0.6,resources/alien3_norm.png,0.4,0.2439,alien4,TRUE,3,0.882270531,157,0,0.6,x,0.4381,,,,,,,,,,,,,,,,,,,,,,,,,,,,,,,,,
GOSH_A12,2023-11-10_12h51.10.671,two_step_task_legacy,2022.2.4,Win32,59.66587112,2,learning,1,TRUE,TRUE,3,0.706041626,red,x,0,239,239,239,1,0.3,0.7,0.4,0.6,TRUE,resources/alien2_norm.png,0.7,resources/alien1_norm.png,0.3,0.2233,alien1,TRUE,3,0.367740279,157,0,0.3,m,0.4166,,,,,,,,,,,,,,,,,,,,,,,,,,,,,,,,,
GOSH_A12,2023-11-10_12h51.10.671,two_step_task_legacy,2022.2.4,Win32,59.66587112,2,learning,0,TRUE,TRUE,2,0.271664939,purple,x,0,240,240,240,1,0.3,0.7,0.4,0.6,TRUE,resources/alien4_norm.png,0.6,resources/alien3_norm.png,0.4,0.2174,alien4,TRUE,2,0.132176069,158,1,0.6,x,0.5886,,,,,,,,,,,,,,,,,,,,,,,,,,,,,,,,,
GOSH_A12,2023-11-10_12h51.10.671,two_step_task_legacy,2022.2.4,Win32,59.66587112,2,learning,1,TRUE,TRUE,3,0.817946518,red,x,0,241,241,241,1,0.3,0.7,0.4,0.6,FALSE,resources/alien1_norm.png,0.3,resources/alien2_norm.png,0.7,0.2671,alien2,TRUE,2,0.400431941,159,1,0.7,m,0.5499,,,,,,,,,,,,,,,,,,,,,,,,,,,,,,,,,
GOSH_A12,2023-11-10_12h51.10.671,two_step_task_legacy,2022.2.4,Win32,59.66587112,2,learning,1,TRUE,TRUE,3,0.719578274,red,x,0,242,242,242,1,0.3,0.7,0.4,0.6,TRUE,resources/alien2_norm.png,0.7,resources/alien1_norm.png,0.3,0.2508,alien2,TRUE,2,0.478281694,160,1,0.7,x,0.5208,,,,,,,,,,,,,,,,,,,,,,,,,,,,,,,,,
GOSH_A12,2023-11-10_12h51.10.671,two_step_task_legacy,2022.2.4,Win32,59.66587112,2,learning,0,TRUE,TRUE,2,0.387026027,purple,x,0,243,243,243,1,0.3,0.7,0.4,0.6,TRUE,resources/alien4_norm.png,0.6,resources/alien3_norm.png,0.4,0.187,alien4,TRUE,2,0.357314141,161,1,0.6,x,0.5109,,,,,,,,,,,,,,,,,,,,,,,,,,,,,,,,,
GOSH_A12,2023-11-10_12h51.10.671,two_step_task_legacy,2022.2.4,Win32,59.66587112,2,learning,0,TRUE,TRUE,2,0.507095185,purple,x,0,244,244,244,1,0.3,0.7,0.4,0.6,FALSE,resources/alien3_norm.png,0.4,resources/alien4_norm.png,0.6,0.2864,alien4,TRUE,2,0.456613145,162,1,0.6,m,0.7042,,,,,,,,,,,,,,,,,,,,,,,,,,,,,,,,,
GOSH_A12,2023-11-10_12h51.10.671,two_step_task_legacy,2022.2.4,Win32,59.66587112,2,learning,0,TRUE,TRUE,2,0.543127834,purple,x,0,245,245,245,1,0.3,0.7,0.4,0.6,TRUE,resources/alien4_norm.png,0.6,resources/alien3_norm.png,0.4,0.2706,alien4,TRUE,2,0.388028218,163,1,0.6,x,0.595,,,,,,,,,,,,,,,,,,,,,,,,,,,,,,,,,
GOSH_A12,2023-11-10_12h51.10.671,two_step_task_legacy,2022.2.4,Win32,59.66587112,2,learning,1,TRUE,TRUE,3,0.788835899,red,x,0,246,246,246,1,0.3,0.7,0.4,0.6,FALSE,resources/alien1_norm.png,0.3,resources/alien2_norm.png,0.7,0.294,alien2,TRUE,3,0.991927426,163,0,0.7,m,0.6205,,,,,,,,,,,,,,,,,,,,,,,,,,,,,,,,,
GOSH_A12,2023-11-10_12h51.10.671,two_step_task_legacy,2022.2.4,Win32,59.66587112,2,learning,0,TRUE,TRUE,2,0.220513826,purple,x,0,247,247,247,1,0.3,0.7,0.4,0.6,FALSE,resources/alien3_norm.png,0.4,resources/alien4_norm.png,0.6,0.2693,alien4,TRUE,3,0.613512438,163,0,0.6,m,0.6232,,,,,,,,,,,,,,,,,,,,,,,,,,,,,,,,,
GOSH_A12,2023-11-10_12h51.10.671,two_step_task_legacy,2022.2.4,Win32,59.66587112,2,learning,1,TRUE,TRUE,3,0.804946711,red,x,0,248,248,248,1,0.3,0.7,0.4,0.6,TRUE,resources/alien2_norm.png,0.7,resources/alien1_norm.png,0.3,0.1929,alien2,TRUE,2,0.076044232,164,1,0.7,x,0.5993,,,,,,,,,,,,,,,,,,,,,,,,,,,,,,,,,
GOSH_A12,2023-11-10_12h51.10.671,two_step_task_legacy,2022.2.4,Win32,59.66587112,2,learning,0,TRUE,TRUE,2,0.448486172,purple,x,0,249,249,249,1,0.3,0.7,0.4,0.6,TRUE,resources/alien4_norm.png,0.6,resources/alien3_norm.png,0.4,0.2053,alien4,TRUE,3,0.663086627,164,0,0.6,x,0.4246,,,,,,,,,,,,,,,,,,,,,,,,,,,,,,,,,
GOSH_A12,2023-11-10_12h51.10.671,two_step_task_legacy,2022.2.4,Win32,59.66587112,2,learning,0,TRUE,TRUE,2,0.032812813,purple,x,0,250,250,250,1,0.3,0.7,0.4,0.6,FALSE,resources/alien3_norm.png,0.4,resources/alien4_norm.png,0.6,0.183,alien3,TRUE,3,0.662583355,164,0,0.4,x,1.0347,,,,,,,,,,,,,,,,,,,,,,,,,,,,,,,,,
GOSH_A12,2023-11-10_12h51.10.671,two_step_task_legacy,2022.2.4,Win32,59.66587112,2,learning,0,TRUE,TRUE,2,0.013221816,purple,x,0,251,251,251,1,0.3,0.7,0.4,0.6,FALSE,resources/alien3_norm.png,0.4,resources/alien4_norm.png,0.6,0.0999,alien4,TRUE,3,0.679677251,164,0,0.6,m,0.4625,,,,,,,,,,,,,,,,,,,,,,,,,,,,,,,,,
GOSH_A12,2023-11-10_12h51.10.671,two_step_task_legacy,2022.2.4,Win32,59.66587112,2,learning,0,TRUE,TRUE,2,0.158727232,purple,x,0,252,252,252,1,0.3,0.7,0.4,0.6,FALSE,resources/alien3_norm.png,0.4,resources/alien4_norm.png,0.6,0.1952,alien4,TRUE,3,0.607893362,164,0,0.6,m,0.4199,,,,,,,,,,,,,,,,,,,,,,,,,,,,,,,,,
GOSH_A12,2023-11-10_12h51.10.671,two_step_task_legacy,2022.2.4,Win32,59.66587112,2,learning,1,TRUE,TRUE,2,0.894797008,purple,m,0,253,253,253,1,0.3,0.7,0.4,0.6,TRUE,resources/alien4_norm.png,0.6,resources/alien3_norm.png,0.4,0.3647,alien4,TRUE,2,0.081859638,165,1,0.6,x,0.7835,,,,,,,,,,,,,,,,,,,,,,,,,,,,,,,,,
GOSH_A12,2023-11-10_12h51.10.671,two_step_task_legacy,2022.2.4,Win32,59.66587112,2,learning,1,TRUE,TRUE,2,0.857045551,purple,m,0,254,254,254,1,0.3,0.7,0.4,0.6,FALSE,resources/alien3_norm.png,0.4,resources/alien4_norm.png,0.6,0.234,alien4,TRUE,2,0.246577494,166,1,0.6,m,0.4151,,,,,,,,,,,,,,,,,,,,,,,,,,,,,,,,,
GOSH_A12,2023-11-10_12h51.10.671,two_step_task_legacy,2022.2.4,Win32,59.66587112,2,learning,1,TRUE,TRUE,2,0.786358258,purple,m,0,255,255,255,1,0.3,0.7,0.4,0.6,FALSE,resources/alien3_norm.png,0.4,resources/alien4_norm.png,0.6,0.0173,alien4,TRUE,2,0.336500958,167,1,0.6,m,0.5205,,,,,,,,,,,,,,,,,,,,,,,,,,,,,,,,,
GOSH_A12,2023-11-10_12h51.10.671,two_step_task_legacy,2022.2.4,Win32,59.66587112,2,learning,0,TRUE,TRUE,3,0.274905844,red,m,0,256,256,256,1,0.3,0.7,0.4,0.6,TRUE,resources/alien2_norm.png,0.7,resources/alien1_norm.png,0.3,0.2347,alien2,TRUE,2,0.677503803,168,1,0.7,x,0.4666,,,,,,,,,,,,,,,,,,,,,,,,,,,,,,,,,
GOSH_A12,2023-11-10_12h51.10.671,two_step_task_legacy,2022.2.4,Win32,59.66587112,2,learning,0,TRUE,TRUE,3,0.209006175,red,m,0,257,257,257,1,0.3,0.7,0.4,0.6,TRUE,resources/alien2_norm.png,0.7,resources/alien1_norm.png,0.3,0.2665,alien2,TRUE,2,0.379094002,169,1,0.7,x,0.3858,,,,,,,,,,,,,,,,,,,,,,,,,,,,,,,,,
GOSH_A12,2023-11-10_12h51.10.671,two_step_task_legacy,2022.2.4,Win32,59.66587112,2,learning,1,TRUE,TRUE,2,0.81129129,purple,m,0,258,258,258,1,0.3,0.7,0.4,0.6,TRUE,resources/alien4_norm.png,0.6,resources/alien3_norm.png,0.4,0.2506,alien4,TRUE,3,0.707506908,169,0,0.6,x,0.6704,,,,,,,,,,,,,,,,,,,,,,,,,,,,,,,,,
GOSH_A12,2023-11-10_12h51.10.671,two_step_task_legacy,2022.2.4,Win32,59.66587112,2,learning,0,TRUE,TRUE,3,0.665807702,red,m,0,259,259,259,1,0.3,0.7,0.4,0.6,TRUE,resources/alien2_norm.png,0.7,resources/alien1_norm.png,0.3,0.2811,alien2,TRUE,2,0.599160018,170,1,0.7,x,0.5001,,,,,,,,,,,,,,,,,,,,,,,,,,,,,,,,,
GOSH_A12,2023-11-10_12h51.10.671,two_step_task_legacy,2022.2.4,Win32,59.66587112,2,learning,0,TRUE,TRUE,3,0.497355258,red,m,0,260,260,260,1,0.3,0.7,0.4,0.6,TRUE,resources/alien2_norm.png,0.7,resources/alien1_norm.png,0.3,0.2703,alien2,TRUE,2,0.266555146,171,1,0.7,x,0.5238,,,,,,,,,,,,,,,,,,,,,,,,,,,,,,,,,
GOSH_A12,2023-11-10_12h51.10.671,two_step_task_legacy,2022.2.4,Win32,59.66587112,2,learning,0,TRUE,TRUE,3,0.13413645,red,m,0,261,261,261,1,0.3,0.7,0.4,0.6,FALSE,resources/alien1_norm.png,0.3,resources/alien2_norm.png,0.7,0.3303,alien2,TRUE,2,0.691271763,172,1,0.7,m,0.6382,,,,,,,,,,,,,,,,,,,,,,,,,,,,,,,,,
GOSH_A12,2023-11-10_12h51.10.671,two_step_task_legacy,2022.2.4,Win32,59.66587112,2,learning,1,TRUE,TRUE,2,0.728001733,purple,m,0,262,262,262,1,0.3,0.7,0.4,0.6,TRUE,resources/alien4_norm.png,0.6,resources/alien3_norm.png,0.4,0.3008,alien4,TRUE,2,0.106495746,173,1,0.6,x,0.6659,,,,,,,,,,,,,,,,,,,,,,,,,,,,,,,,,
GOSH_A12,2023-11-10_12h51.10.671,two_step_task_legacy,2022.2.4,Win32,59.66587112,2,learning,0,TRUE,TRUE,3,0.492612704,red,m,0,263,263,263,1,0.3,0.7,0.4,0.6,FALSE,resources/alien1_norm.png,0.3,resources/alien2_norm.png,0.7,0.2006,alien2,TRUE,2,0.097400128,174,1,0.7,m,0.5359,,,,,,,,,,,,,,,,,,,,,,,,,,,,,,,,,
GOSH_A12,2023-11-10_12h51.10.671,two_step_task_legacy,2022.2.4,Win32,59.66587112,2,learning,0,TRUE,TRUE,3,0.484305753,red,m,0,264,264,264,1,0.3,0.7,0.4,0.6,FALSE,resources/alien1_norm.png,0.3,resources/alien2_norm.png,0.7,0.4782,alien2,TRUE,3,0.966971586,174,0,0.7,m,0.5417,,,,,,,,,,,,,,,,,,,,,,,,,,,,,,,,,
GOSH_A12,2023-11-10_12h51.10.671,two_step_task_legacy,2022.2.4,Win32,59.66587112,2,learning,1,TRUE,TRUE,2,0.835968298,purple,m,0,265,265,265,1,0.3,0.7,0.4,0.6,FALSE,resources/alien3_norm.png,0.4,resources/alien4_norm.png,0.6,0.2673,alien4,TRUE,3,0.682666368,174,0,0.6,m,0.8102,,,,,,,,,,,,,,,,,,,,,,,,,,,,,,,,,
GOSH_A12,2023-11-10_12h51.10.671,two_step_task_legacy,2022.2.4,Win32,59.66587112,2,learning,1,TRUE,TRUE,3,0.850403265,red,x,0,266,266,266,1,0.3,0.7,0.4,0.6,TRUE,resources/alien2_norm.png,0.7,resources/alien1_norm.png,0.3,0.0478,alien2,TRUE,2,0.692652318,175,1,0.7,x,0.4501,,,,,,,,,,,,,,,,,,,,,,,,,,,,,,,,,
GOSH_A12,2023-11-10_12h51.10.671,two_step_task_legacy,2022.2.4,Win32,59.66587112,2,learning,1,TRUE,TRUE,3,0.753107149,red,x,0,267,267,267,1,0.3,0.7,0.4,0.6,FALSE,resources/alien1_norm.png,0.3,resources/alien2_norm.png,0.7,0.2369,alien2,TRUE,2,0.615842572,176,1,0.7,m,0.4449,,,,,,,,,,,,,,,,,,,,,,,,,,,,,,,,,
GOSH_A12,2023-11-10_12h51.10.671,two_step_task_legacy,2022.2.4,Win32,59.66587112,2,learning,1,TRUE,TRUE,3,0.860408366,red,x,0,268,268,268,1,0.3,0.7,0.4,0.6,FALSE,resources/alien1_norm.png,0.3,resources/alien2_norm.png,0.7,0.2381,alien2,TRUE,2,0.303881889,177,1,0.7,m,0.4772,,,,,,,,,,,,,,,,,,,,,,,,,,,,,,,,,
GOSH_A12,2023-11-10_12h51.10.671,two_step_task_legacy,2022.2.4,Win32,59.66587112,2,learning,0,TRUE,TRUE,2,0.103977864,purple,x,0,269,269,269,1,0.3,0.7,0.4,0.6,TRUE,resources/alien4_norm.png,0.6,resources/alien3_norm.png,0.4,0.3832,alien4,TRUE,2,0.589680523,178,1,0.6,x,0.734,,,,,,,,,,,,,,,,,,,,,,,,,,,,,,,,,
GOSH_A12,2023-11-10_12h51.10.671,two_step_task_legacy,2022.2.4,Win32,59.66587112,2,learning,0,TRUE,TRUE,2,0.272973989,purple,x,0,270,270,270,1,0.3,0.7,0.4,0.6,FALSE,resources/alien3_norm.png,0.4,resources/alien4_norm.png,0.6,0.6842,alien4,TRUE,3,0.602385317,178,0,0.6,m,0.5205,,,,,,,,,,,,,,,,,,,,,,,,,,,,,,,,,
GOSH_A12,2023-11-10_12h51.10.671,two_step_task_legacy,2022.2.4,Win32,59.66587112,2,learning,1,TRUE,TRUE,2,0.80151523,purple,m,0,271,271,271,1,0.3,0.7,0.4,0.6,FALSE,resources/alien3_norm.png,0.4,resources/alien4_norm.png,0.6,0.25,alien4,TRUE,2,0.296368493,179,1,0.6,m,0.6229,,,,,,,,,,,,,,,,,,,,,,,,,,,,,,,,,
GOSH_A12,2023-11-10_12h51.10.671,two_step_task_legacy,2022.2.4,Win32,59.66587112,2,learning,0,TRUE,TRUE,3,0.039326018,red,m,0,272,272,272,1,0.3,0.7,0.4,0.6,FALSE,resources/alien1_norm.png,0.3,resources/alien2_norm.png,0.7,0.0902,alien2,TRUE,3,0.992366046,179,0,0.7,m,0.4208,,,,,,,,,,,,,,,,,,,,,,,,,,,,,,,,,
GOSH_A12,2023-11-10_12h51.10.671,two_step_task_legacy,2022.2.4,Win32,59.66587112,2,learning,0,TRUE,TRUE,3,0.07237469,red,m,0,273,273,273,1,0.3,0.7,0.4,0.6,FALSE,resources/alien1_norm.png,0.3,resources/alien2_norm.png,0.7,0.2312,alien2,TRUE,2,0.334843245,180,1,0.7,m,0.401,,,,,,,,,,,,,,,,,,,,,,,,,,,,,,,,,
GOSH_A12,2023-11-10_12h51.10.671,two_step_task_legacy,2022.2.4,Win32,59.66587112,2,learning,1,TRUE,TRUE,2,0.954663003,purple,m,0,274,274,274,1,0.3,0.7,0.4,0.6,TRUE,resources/alien4_norm.png,0.6,resources/alien3_norm.png,0.4,0.2173,alien4,TRUE,2,0.410924409,181,1,0.6,x,0.6592,,,,,,,,,,,,,,,,,,,,,,,,,,,,,,,,,
GOSH_A12,2023-11-10_12h51.10.671,two_step_task_legacy,2022.2.4,Win32,59.66587112,2,learning,0,TRUE,TRUE,3,0.54769183,red,m,0,275,275,275,1,0.3,0.7,0.4,0.6,FALSE,resources/alien1_norm.png,0.3,resources/alien2_norm.png,0.7,0.2146,alien2,TRUE,2,0.061466684,182,1,0.7,m,0.3926,,,,,,,,,,,,,,,,,,,,,,,,,,,,,,,,,
GOSH_A12,2023-11-10_12h51.10.671,two_step_task_legacy,2022.2.4,Win32,59.66587112,2,learning,0,TRUE,TRUE,3,0.643069882,red,m,0,276,276,276,1,0.3,0.7,0.4,0.6,TRUE,resources/alien2_norm.png,0.7,resources/alien1_norm.png,0.3,0.2364,alien1,TRUE,3,0.808078694,182,0,0.3,m,0.4374,,,,,,,,,,,,,,,,,,,,,,,,,,,,,,,,,
GOSH_A12,2023-11-10_12h51.10.671,two_step_task_legacy,2022.2.4,Win32,59.66587112,2,learning,0,TRUE,TRUE,3,0.163344772,red,m,0,277,277,277,1,0.3,0.7,0.4,0.6,TRUE,resources/alien2_norm.png,0.7,resources/alien1_norm.png,0.3,0.2479,alien2,TRUE,2,0.677002226,183,1,0.7,x,0.4332,,,,,,,,,,,,,,,,,,,,,,,,,,,,,,,,,
GOSH_A12,2023-11-10_12h51.10.671,two_step_task_legacy,2022.2.4,Win32,59.66587112,2,learning,1,TRUE,TRUE,2,0.756116303,purple,m,0,278,278,278,1,0.3,0.7,0.4,0.6,FALSE,resources/alien3_norm.png,0.4,resources/alien4_norm.png,0.6,0.2352,alien4,TRUE,2,0.131160057,184,1,0.6,m,0.6953,,,,,,,,,,,,,,,,,,,,,,,,,,,,,,,,,
GOSH_A12,2023-11-10_12h51.10.671,two_step_task_legacy,2022.2.4,Win32,59.66587112,2,learning,0,TRUE,TRUE,3,0.605920134,red,m,0,279,279,279,1,0.3,0.7,0.4,0.6,FALSE,resources/alien1_norm.png,0.3,resources/alien2_norm.png,0.7,0.2497,alien2,TRUE,3,0.760385212,184,0,0.7,m,0.4824,,,,,,,,,,,,,,,,,,,,,,,,,,,,,,,,,
GOSH_A12,2023-11-10_12h51.10.671,two_step_task_legacy,2022.2.4,Win32,59.66587112,2,learning,0,TRUE,TRUE,3,0.503340465,red,m,0,280,280,280,1,0.3,0.7,0.4,0.6,FALSE,resources/alien1_norm.png,0.3,resources/alien2_norm.png,0.7,0.2226,alien2,TRUE,3,0.956504192,184,0,0.7,m,0.4618,,,,,,,,,,,,,,,,,,,,,,,,,,,,,,,,,
GOSH_A12,2023-11-10_12h51.10.671,two_step_task_legacy,2022.2.4,Win32,59.66587112,2,learning,0,TRUE,TRUE,3,0.292447954,red,m,0,281,281,281,1,0.3,0.7,0.4,0.6,TRUE,resources/alien2_norm.png,0.7,resources/alien1_norm.png,0.3,0.1167,alien2,TRUE,3,0.785889681,184,0,0.7,x,0.544,,,,,,,,,,,,,,,,,,,,,,,,,,,,,,,,,
GOSH_A12,2023-11-10_12h51.10.671,two_step_task_legacy,2022.2.4,Win32,59.66587112,2,learning,1,TRUE,TRUE,3,0.957970078,red,x,0,282,282,282,1,0.3,0.7,0.4,0.6,FALSE,resources/alien1_norm.png,0.3,resources/alien2_norm.png,0.7,0.0505,alien2,TRUE,3,0.925695159,184,0,0.7,m,0.5123,,,,,,,,,,,,,,,,,,,,,,,,,,,,,,,,,
GOSH_A12,2023-11-10_12h51.10.671,two_step_task_legacy,2022.2.4,Win32,59.66587112,2,learning,1,TRUE,TRUE,3,0.918047303,red,x,0,283,283,283,1,0.3,0.7,0.4,0.6,FALSE,resources/alien1_norm.png,0.3,resources/alien2_norm.png,0.7,0.2164,alien1,TRUE,3,0.311670218,184,0,0.3,x,0.4374,,,,,,,,,,,,,,,,,,,,,,,,,,,,,,,,,
GOSH_A12,2023-11-10_12h51.10.671,two_step_task_legacy,2022.2.4,Win32,59.66587112,2,learning,0,TRUE,TRUE,2,0.437840322,purple,x,0,284,284,284,1,0.3,0.7,0.4,0.6,TRUE,resources/alien4_norm.png,0.6,resources/alien3_norm.png,0.4,0.1124,alien4,TRUE,2,0.107054727,185,1,0.6,x,0.661,,,,,,,,,,,,,,,,,,,,,,,,,,,,,,,,,
GOSH_A12,2023-11-10_12h51.10.671,two_step_task_legacy,2022.2.4,Win32,59.66587112,2,learning,0,TRUE,TRUE,2,0.55808984,purple,x,0,285,285,285,1,0.3,0.7,0.4,0.6,FALSE,resources/alien3_norm.png,0.4,resources/alien4_norm.png,0.6,0.2384,alien4,TRUE,3,0.608963854,185,0,0.6,m,0.6178,,,,,,,,,,,,,,,,,,,,,,,,,,,,,,,,,
GOSH_A12,2023-11-10_12h51.10.671,two_step_task_legacy,2022.2.4,Win32,59.66587112,2,learning,0,TRUE,TRUE,2,0.643344604,purple,x,0,286,286,286,1,0.3,0.7,0.4,0.6,FALSE,resources/alien3_norm.png,0.4,resources/alien4_norm.png,0.6,0.2839,alien4,TRUE,3,0.884927376,185,0,0.6,m,0.3755,,,,,,,,,,,,,,,,,,,,,,,,,,,,,,,,,
GOSH_A12,2023-11-10_12h51.10.671,two_step_task_legacy,2022.2.4,Win32,59.66587112,2,learning,0,TRUE,TRUE,3,0.056119476,red,m,0,287,287,287,1,0.3,0.7,0.4,0.6,FALSE,resources/alien1_norm.png,0.3,resources/alien2_norm.png,0.7,0.3607,alien2,TRUE,3,0.745387473,185,0,0.7,m,0.483,,,,,,,,,,,,,,,,,,,,,,,,,,,,,,,,,
GOSH_A12,2023-11-10_12h51.10.671,two_step_task_legacy,2022.2.4,Win32,59.66587112,2,learning,1,TRUE,TRUE,3,0.847124268,red,x,0,288,288,288,1,0.3,0.7,0.4,0.6,FALSE,resources/alien1_norm.png,0.3,resources/alien2_norm.png,0.7,0.2832,alien2,TRUE,2,0.121487021,186,1,0.7,m,0.5721,,,,,,,,,,,,,,,,,,,,,,,,,,,,,,,,,
GOSH_A12,2023-11-10_12h51.10.671,two_step_task_legacy,2022.2.4,Win32,59.66587112,2,learning,0,TRUE,TRUE,2,0.005392525,purple,x,0,289,289,289,1,0.3,0.7,0.4,0.6,FALSE,resources/alien3_norm.png,0.4,resources/alien4_norm.png,0.6,0.4499,alien4,TRUE,2,0.066388733,187,1,0.6,m,0.4808,,,,,,,,,,,,,,,,,,,,,,,,,,,,,,,,,
