participant,date,expName,psychopyVersion,OS,frameRate,payoff_list,phase,rare_transition,left_alien,left_probabilty,right_alien,right_probabilty,select_sp,show_alien,rocket_trans,rand_sp,planet,key_resp_exp.keys,key_resp_exp.rt,chosen_alien,select_alien,transmoney,rand_money,totalgold,trialgain,probs,key_resp_exp_alien.keys,key_resp_exp_alien.rt,loop_exp.thisRepN,loop_exp.thisTrialN,loop_exp.thisN,loop_exp.thisIndex,loop_exp.ran,p1,p2,p3,p4,flip_sides,static_probability_left,static_probability_right,key_resp_probe.keys,key_resp_probe.rt,accuracy,probe_loop.thisRepN,probe_loop.thisTrialN,probe_loop.thisN,probe_loop.thisIndex,probe_loop.ran,probe_la,probe_ra,key_resp.keys,key_resp.rt,slider.response,slider.rt,post_loop.thisRepN,post_loop.thisTrialN,post_loop.thisN,post_loop.thisIndex,post_loop.ran,text_up,pos_text_up,text_down,pos_img_left_up,left_up_img,right_up_img,left_down_img_1,left_down_img_2,right_down_img_1,right_down_img_2,size,show_slider
GOSH_A3,2023-11-09_13h11.15.097,two_step_task_legacy,2022.2.4,Win32,59.83008257,,,,,,,,,,,,,,,,,,,,,,,,,,,,,,,,,,,,,,,,,,,,,,,,,,,,,,,,,,,,,,,,,,
GOSH_A3,2023-11-09_13h11.15.097,two_step_task_legacy,2022.2.4,Win32,59.83008257,,,,,,,,,,,,,,,,,,,,,,,,,,,,,,,,,,,,,,,,,,,,,,,,,,,,,,,,,,,,,,,,,,
GOSH_A3,2023-11-09_13h11.15.097,two_step_task_legacy,2022.2.4,Win32,59.83008257,,,,,,,,,,,,,,,,,,,,,,,,,,,,,,,,,,,,,,,,,,,,,,,,,,,,,,,,,,,,,,,,,,
GOSH_A3,2023-11-09_13h11.15.097,two_step_task_legacy,2022.2.4,Win32,59.83008257,,,,,,,,,,,,,,,,,,,,,,,,,,,,,,,,,,,,,,,,,,,,,,,,,,,,,,,,,,,,,,,,,,
GOSH_A3,2023-11-09_13h11.15.097,two_step_task_legacy,2022.2.4,Win32,59.83008257,,,,,,,,,,,,,,,,,,,,,,,,,,,,,,,,,,,,,,,,,,,,,,,,,,,,,,,,,,,,,,,,,,
GOSH_A3,2023-11-09_13h11.15.097,two_step_task_legacy,2022.2.4,Win32,59.83008257,,,,,,,,,,,,,,,,,,,,,,,,,,,,,,,,,,,,,,,,,,,,,,,,,,,,,,,,,,,,,,,,,,
GOSH_A3,2023-11-09_13h11.15.097,two_step_task_legacy,2022.2.4,Win32,59.83008257,,,,,,,,,,,,,,,,,,,,,,,,,,,,,,,,,,,,,,,,,,,,,,,,,,,,,,,,,,,,,,,,,,
GOSH_A3,2023-11-09_13h11.15.097,two_step_task_legacy,2022.2.4,Win32,59.83008257,,,,,,,,,,,,,,,,,,,,,,,,,,,,,,,,,,,,,,,,,,,,,,,,,,,,,,,,,,,,,,,,,,
GOSH_A3,2023-11-09_13h11.15.097,two_step_task_legacy,2022.2.4,Win32,59.83008257,,,,,,,,,,,,,,,,,,,,,,,,,,,,,,,,,,,,,,,,,,,,,,,,,,,,,,,,,,,,,,,,,,
GOSH_A3,2023-11-09_13h11.15.097,two_step_task_legacy,2022.2.4,Win32,59.83008257,,,,,,,,,,,,,,,,,,,,,,,,,,,,,,,,,,,,,,,,,,,,,,,,,,,,,,,,,,,,,,,,,,
GOSH_A3,2023-11-09_13h11.15.097,two_step_task_legacy,2022.2.4,Win32,59.83008257,,,,,,,,,,,,,,,,,,,,,,,,,,,,,,,,,,,,,,,,,,,,,,,,,,,,,,,,,,,,,,,,,,
GOSH_A3,2023-11-09_13h11.15.097,two_step_task_legacy,2022.2.4,Win32,59.83008257,31,learning,0,resources/alien1_norm.png,0.308256968,resources/alien2_norm.png,0.40239633,TRUE,TRUE,3,0.207208541,red,m,1.5263,alien1,TRUE,3,0.333485331,0,0,0.308256968,x,1.0061,0,0,0,0,1,0.308256968,0.40239633,0.405114184,0.576765095,FALSE,,,,,,,,,,,,,,,,,,,,,,,,,,,,,,,,,
GOSH_A3,2023-11-09_13h11.15.097,two_step_task_legacy,2022.2.4,Win32,59.83008257,31,learning,0,resources/alien1_norm.png,0.303750526,resources/alien2_norm.png,0.388624967,TRUE,TRUE,3,0.285275777,red,m,1.3221,alien2,TRUE,3,0.743472413,0,0,0.388624967,m,0.8678,0,1,1,1,1,0.303750526,0.388624967,0.375848967,0.559690988,FALSE,,,,,,,,,,,,,,,,,,,,,,,,,,,,,,,,,
GOSH_A3,2023-11-09_13h11.15.097,two_step_task_legacy,2022.2.4,Win32,59.83008257,31,learning,0,resources/alien4_norm.png,0.549731917,resources/alien3_norm.png,0.35374972,TRUE,TRUE,2,0.126595478,purple,x,0.4835,alien4,TRUE,3,0.65259805,0,0,0.549731917,x,0.5052,0,2,2,2,1,0.282146791,0.385789481,0.35374972,0.549731917,TRUE,,,,,,,,,,,,,,,,,,,,,,,,,,,,,,,,,
GOSH_A3,2023-11-09_13h11.15.097,two_step_task_legacy,2022.2.4,Win32,59.83008257,31,learning,1,resources/alien1_norm.png,0.311035025,resources/alien2_norm.png,0.386027604,TRUE,TRUE,3,0.891005205,red,x,0.2691,alien1,TRUE,3,0.870959117,0,0,0.311035025,x,1.8593,0,3,3,3,1,0.311035025,0.386027604,0.370417199,0.56697718,FALSE,,,,,,,,,,,,,,,,,,,,,,,,,,,,,,,,,
GOSH_A3,2023-11-09_13h11.15.097,two_step_task_legacy,2022.2.4,Win32,59.83008257,31,learning,0,resources/alien3_norm.png,0.3707712,resources/alien4_norm.png,0.553983958,TRUE,TRUE,2,0.268090307,purple,x,0.2818,alien4,TRUE,2,0.455413572,1,1,0.553983958,m,1.3602,0,4,4,4,1,0.330037275,0.406497431,0.3707712,0.553983958,FALSE,,,,,,,,,,,,,,,,,,,,,,,,,,,,,,,,,
GOSH_A3,2023-11-09_13h11.15.097,two_step_task_legacy,2022.2.4,Win32,59.83008257,31,learning,0,resources/alien3_norm.png,0.411737843,resources/alien4_norm.png,0.550383913,TRUE,TRUE,2,0.431656166,purple,x,0.8856,alien3,TRUE,2,0.070387963,2,1,0.411737843,x,1.5452,0,5,5,5,1,0.319697015,0.420924571,0.411737843,0.550383913,FALSE,,,,,,,,,,,,,,,,,,,,,,,,,,,,,,,,,
GOSH_A3,2023-11-09_13h11.15.097,two_step_task_legacy,2022.2.4,Win32,59.83008257,31,learning,0,resources/alien3_norm.png,0.40380265,resources/alien4_norm.png,0.532545331,TRUE,TRUE,2,0.690801358,purple,x,0.3315,alien3,TRUE,3,0.677090771,2,0,0.40380265,x,0.77,0,6,6,6,1,0.374534372,0.429259747,0.40380265,0.532545331,FALSE,,,,,,,,,,,,,,,,,,,,,,,,,,,,,,,,,
GOSH_A3,2023-11-09_13h11.15.097,two_step_task_legacy,2022.2.4,Win32,59.83008257,31,learning,0,resources/alien4_norm.png,0.528660643,resources/alien3_norm.png,0.434730642,TRUE,TRUE,2,0.116193652,purple,x,0.3226,alien3,TRUE,2,0.061834782,3,1,0.434730642,m,0.5008,0,7,7,7,1,0.373347589,0.385603329,0.434730642,0.528660643,TRUE,,,,,,,,,,,,,,,,,,,,,,,,,,,,,,,,,
GOSH_A3,2023-11-09_13h11.15.097,two_step_task_legacy,2022.2.4,Win32,59.83008257,31,learning,0,resources/alien4_norm.png,0.502939316,resources/alien3_norm.png,0.398281448,TRUE,TRUE,2,0.42043334,purple,x,0.412,alien4,TRUE,3,0.581444614,3,0,0.502939316,x,0.7544,0,8,8,8,1,0.337951362,0.425716221,0.398281448,0.502939316,TRUE,,,,,,,,,,,,,,,,,,,,,,,,,,,,,,,,,
GOSH_A3,2023-11-09_13h11.15.097,two_step_task_legacy,2022.2.4,Win32,59.83008257,31,learning,0,resources/alien3_norm.png,0.380634322,resources/alien4_norm.png,0.511941223,TRUE,TRUE,2,0.403244805,purple,x,0.3041,alien4,TRUE,2,0.414614749,4,1,0.511941223,m,1.7387,0,9,9,9,1,0.348751458,0.409492703,0.380634322,0.511941223,FALSE,,,,,,,,,,,,,,,,,,,,,,,,,,,,,,,,,
GOSH_A3,2023-11-09_13h11.15.097,two_step_task_legacy,2022.2.4,Win32,59.83008257,31,learning,0,resources/alien3_norm.png,0.356859485,resources/alien4_norm.png,0.461856458,TRUE,TRUE,2,0.305147798,purple,x,0.5098,alien3,TRUE,2,0.239242208,5,1,0.356859485,x,0.4343,0,10,10,10,1,0.359100765,0.420449466,0.356859485,0.461856458,FALSE,,,,,,,,,,,,,,,,,,,,,,,,,,,,,,,,,
GOSH_A3,2023-11-09_13h11.15.097,two_step_task_legacy,2022.2.4,Win32,59.83008257,31,learning,1,resources/alien1_norm.png,0.334786622,resources/alien2_norm.png,0.433505728,TRUE,TRUE,3,0.933740569,red,x,0.3962,alien1,TRUE,3,0.728045512,5,0,0.334786622,x,2.716,0,11,11,11,1,0.334786622,0.433505728,0.332591039,0.457442013,FALSE,,,,,,,,,,,,,,,,,,,,,,,,,,,,,,,,,
GOSH_A3,2023-11-09_13h11.15.097,two_step_task_legacy,2022.2.4,Win32,59.83008257,31,learning,1,resources/alien1_norm.png,0.310197991,resources/alien2_norm.png,0.440948156,TRUE,TRUE,3,0.816726031,red,x,0.3815,alien2,TRUE,3,0.552867401,5,0,0.440948156,m,0.8407,0,12,12,12,1,0.310197991,0.440948156,0.345881542,0.428850041,FALSE,,,,,,,,,,,,,,,,,,,,,,,,,,,,,,,,,
GOSH_A3,2023-11-09_13h11.15.097,two_step_task_legacy,2022.2.4,Win32,59.83008257,31,learning,0,resources/alien2_norm.png,0.447699877,resources/alien1_norm.png,0.336275699,TRUE,TRUE,3,0.555876234,red,m,0.5367,alien1,TRUE,3,0.789486621,5,0,0.336275699,m,0.9,0,13,13,13,1,0.336275699,0.447699877,0.3560984,0.439803574,TRUE,,,,,,,,,,,,,,,,,,,,,,,,,,,,,,,,,
GOSH_A3,2023-11-09_13h11.15.097,two_step_task_legacy,2022.2.4,Win32,59.83008257,31,learning,0,resources/alien4_norm.png,0.445128952,resources/alien3_norm.png,0.377740833,TRUE,TRUE,2,0.510985229,purple,x,0.4337,alien3,TRUE,3,0.943921295,5,0,0.377740833,m,1.111,0,14,14,14,1,0.310955652,0.431966512,0.377740833,0.445128952,TRUE,,,,,,,,,,,,,,,,,,,,,,,,,,,,,,,,,
GOSH_A3,2023-11-09_13h11.15.097,two_step_task_legacy,2022.2.4,Win32,59.83008257,31,learning,0,resources/alien3_norm.png,0.386367482,resources/alien4_norm.png,0.419394809,TRUE,TRUE,2,0.478469018,purple,x,0.3175,alien3,TRUE,3,0.55776942,5,0,0.386367482,x,0.6681,0,15,15,15,1,0.288460094,0.439469287,0.386367482,0.419394809,FALSE,,,,,,,,,,,,,,,,,,,,,,,,,,,,,,,,,
GOSH_A3,2023-11-09_13h11.15.097,two_step_task_legacy,2022.2.4,Win32,59.83008257,31,learning,1,resources/alien4_norm.png,0.429867389,resources/alien3_norm.png,0.389875525,TRUE,TRUE,2,0.7277259,purple,m,0.3147,alien4,TRUE,3,0.903998712,5,0,0.429867389,x,2.3684,0,16,16,16,1,0.314264702,0.40618889,0.389875525,0.429867389,TRUE,,,,,,,,,,,,,,,,,,,,,,,,,,,,,,,,,
GOSH_A3,2023-11-09_13h11.15.097,two_step_task_legacy,2022.2.4,Win32,59.83008257,31,learning,0,resources/alien2_norm.png,0.436753725,resources/alien1_norm.png,0.329479215,TRUE,TRUE,3,0.406248597,red,m,0.5448,alien2,TRUE,3,0.829538742,5,0,0.436753725,x,1.0906,0,17,17,17,1,0.329479215,0.436753725,0.423447256,0.42195488,TRUE,,,,,,,,,,,,,,,,,,,,,,,,,,,,,,,,,
GOSH_A3,2023-11-09_13h11.15.097,two_step_task_legacy,2022.2.4,Win32,59.83008257,31,learning,0,resources/alien2_norm.png,0.430858483,resources/alien1_norm.png,0.342162292,TRUE,TRUE,3,0.203204814,red,m,0.2811,alien1,TRUE,3,0.974895251,5,0,0.342162292,m,0.3285,0,18,18,18,1,0.342162292,0.430858483,0.421696126,0.415809758,TRUE,,,,,,,,,,,,,,,,,,,,,,,,,,,,,,,,,
GOSH_A3,2023-11-09_13h11.15.097,two_step_task_legacy,2022.2.4,Win32,59.83008257,31,learning,0,resources/alien4_norm.png,0.360130556,resources/alien3_norm.png,0.423426482,TRUE,TRUE,2,0.009746171,purple,x,0.2691,alien3,TRUE,3,0.884879124,5,0,0.423426482,m,0.6596,0,19,19,19,1,0.340493369,0.429971496,0.423426482,0.360130556,TRUE,,,,,,,,,,,,,,,,,,,,,,,,,,,,,,,,,
GOSH_A3,2023-11-09_13h11.15.097,two_step_task_legacy,2022.2.4,Win32,59.83008257,31,learning,0,resources/alien4_norm.png,0.33758227,resources/alien3_norm.png,0.469317449,TRUE,TRUE,2,0.152587745,purple,x,0.3206,alien4,TRUE,3,0.702037866,5,0,0.33758227,x,0.7174,0,20,20,20,1,0.372574772,0.488195359,0.469317449,0.33758227,TRUE,,,,,,,,,,,,,,,,,,,,,,,,,,,,,,,,,
GOSH_A3,2023-11-09_13h11.15.097,two_step_task_legacy,2022.2.4,Win32,59.83008257,31,learning,0,resources/alien2_norm.png,0.469414634,resources/alien1_norm.png,0.362843116,TRUE,TRUE,3,0.461143599,red,m,0.3788,alien2,TRUE,2,0.283759183,6,1,0.469414634,x,1.5164,0,21,21,21,1,0.362843116,0.469414634,0.438740885,0.293125872,TRUE,,,,,,,,,,,,,,,,,,,,,,,,,,,,,,,,,
GOSH_A3,2023-11-09_13h11.15.097,two_step_task_legacy,2022.2.4,Win32,59.83008257,31,learning,1,resources/alien3_norm.png,0.425207524,resources/alien4_norm.png,0.298589211,TRUE,TRUE,2,0.750864267,purple,m,0.4509,alien3,TRUE,3,0.605476031,6,0,0.425207524,x,1.7176,0,22,22,22,1,0.373683349,0.473626381,0.425207524,0.298589211,FALSE,,,,,,,,,,,,,,,,,,,,,,,,,,,,,,,,,
GOSH_A3,2023-11-09_13h11.15.097,two_step_task_legacy,2022.2.4,Win32,59.83008257,31,learning,0,resources/alien4_norm.png,0.32710624,resources/alien3_norm.png,0.452541111,TRUE,TRUE,2,0.68893074,purple,x,0.2693,alien3,TRUE,3,0.80463146,6,0,0.452541111,m,0.1229,0,23,23,23,1,0.402849975,0.519983858,0.452541111,0.32710624,TRUE,,,,,,,,,,,,,,,,,,,,,,,,,,,,,,,,,
GOSH_A3,2023-11-09_13h11.15.097,two_step_task_legacy,2022.2.4,Win32,59.83008257,31,learning,0,resources/alien1_norm.png,0.400026357,resources/alien2_norm.png,0.508985053,TRUE,TRUE,3,0.239613682,red,m,0.9697,alien2,TRUE,2,0.471246067,7,1,0.508985053,m,1.878,0,24,24,24,1,0.400026357,0.508985053,0.38285773,0.324564679,FALSE,,,,,,,,,,,,,,,,,,,,,,,,,,,,,,,,,
GOSH_A3,2023-11-09_13h11.15.097,two_step_task_legacy,2022.2.4,Win32,59.83008257,31,learning,0,resources/alien2_norm.png,0.486523154,resources/alien1_norm.png,0.402023678,TRUE,TRUE,3,0.145085976,red,m,0.4666,alien2,TRUE,3,0.76596446,7,0,0.486523154,x,0.7564,0,25,25,25,1,0.402023678,0.486523154,0.375587977,0.319972093,TRUE,,,,,,,,,,,,,,,,,,,,,,,,,,,,,,,,,
GOSH_A3,2023-11-09_13h11.15.097,two_step_task_legacy,2022.2.4,Win32,59.83008257,31,learning,0,resources/alien1_norm.png,0.420450172,resources/alien2_norm.png,0.530270136,TRUE,TRUE,3,0.12860331,red,m,0.2978,alien1,TRUE,2,0.080363505,8,1,0.420450172,x,0.554,0,26,26,26,1,0.420450172,0.530270136,0.353910913,0.297210029,FALSE,,,,,,,,,,,,,,,,,,,,,,,,,,,,,,,,,
GOSH_A3,2023-11-09_13h11.15.097,two_step_task_legacy,2022.2.4,Win32,59.83008257,31,learning,1,resources/alien4_norm.png,0.253963994,resources/alien3_norm.png,0.369124849,TRUE,TRUE,2,0.973246074,purple,m,0.5044,alien3,TRUE,3,0.419130388,8,0,0.369124849,m,0.9945,0,27,27,27,1,0.405422621,0.527962437,0.369124849,0.253963994,TRUE,,,,,,,,,,,,,,,,,,,,,,,,,,,,,,,,,
GOSH_A3,2023-11-09_13h11.15.097,two_step_task_legacy,2022.2.4,Win32,59.83008257,31,learning,0,resources/alien1_norm.png,0.399682699,resources/alien2_norm.png,0.51696249,TRUE,TRUE,3,0.407776711,red,m,0.3037,alien1,TRUE,3,0.454344805,8,0,0.399682699,x,0.8559,0,28,28,28,1,0.399682699,0.51696249,0.362253929,0.269385642,FALSE,,,,,,,,,,,,,,,,,,,,,,,,,,,,,,,,,
GOSH_A3,2023-11-09_13h11.15.097,two_step_task_legacy,2022.2.4,Win32,59.83008257,31,learning,0,resources/alien2_norm.png,0.521911456,resources/alien1_norm.png,0.373511879,TRUE,TRUE,3,0.211671253,red,m,0.4105,alien2,TRUE,3,0.617433531,8,0,0.521911456,x,0.6526,0,29,29,29,1,0.373511879,0.521911456,0.368211467,0.261193688,TRUE,,,,,,,,,,,,,,,,,,,,,,,,,,,,,,,,,
GOSH_A3,2023-11-09_13h11.15.097,two_step_task_legacy,2022.2.4,Win32,59.83008257,31,learning,0,resources/alien3_norm.png,0.353327525,resources/alien4_norm.png,0.264489197,TRUE,TRUE,2,0.427689883,purple,x,0.2999,alien3,TRUE,3,0.643225115,8,0,0.353327525,x,0.3117,0,30,30,30,1,0.369088209,0.529599042,0.353327525,0.264489197,FALSE,,,,,,,,,,,,,,,,,,,,,,,,,,,,,,,,,
GOSH_A3,2023-11-09_13h11.15.097,two_step_task_legacy,2022.2.4,Win32,59.83008257,31,learning,0,resources/alien4_norm.png,0.280919229,resources/alien3_norm.png,0.368425487,TRUE,TRUE,2,0.072845442,purple,x,0.2506,alien4,TRUE,3,0.706047417,8,0,0.280919229,x,1.1789,0,31,31,31,1,0.393762256,0.510609834,0.368425487,0.280919229,TRUE,,,,,,,,,,,,,,,,,,,,,,,,,,,,,,,,,
GOSH_A3,2023-11-09_13h11.15.097,two_step_task_legacy,2022.2.4,Win32,59.83008257,31,learning,1,resources/alien4_norm.png,0.266638039,resources/alien3_norm.png,0.358105587,TRUE,TRUE,2,0.872868714,purple,m,0.2508,alien3,TRUE,2,0.272323187,9,1,0.358105587,m,0.9042,0,32,32,32,1,0.373790081,0.507604702,0.358105587,0.266638039,TRUE,,,,,,,,,,,,,,,,,,,,,,,,,,,,,,,,,
GOSH_A3,2023-11-09_13h11.15.097,two_step_task_legacy,2022.2.4,Win32,59.83008257,31,learning,0,resources/alien1_norm.png,0.350236748,resources/alien2_norm.png,0.500092553,TRUE,TRUE,3,0.322707413,red,m,0.3313,alien1,TRUE,2,0.28297083,10,1,0.350236748,x,1.1874,0,33,33,33,1,0.350236748,0.500092553,0.337718374,0.275964805,FALSE,,,,,,,,,,,,,,,,,,,,,,,,,,,,,,,,,
GOSH_A3,2023-11-09_13h11.15.097,two_step_task_legacy,2022.2.4,Win32,59.83008257,31,learning,0,resources/alien1_norm.png,0.388262412,resources/alien2_norm.png,0.518183331,TRUE,TRUE,3,0.298620264,red,m,0.4215,alien2,TRUE,2,0.395648406,11,1,0.518183331,m,0.6846,0,34,34,34,1,0.388262412,0.518183331,0.327684966,0.290796063,FALSE,,,,,,,,,,,,,,,,,,,,,,,,,,,,,,,,,
GOSH_A3,2023-11-09_13h11.15.097,two_step_task_legacy,2022.2.4,Win32,59.83008257,31,learning,0,resources/alien2_norm.png,0.472961766,resources/alien1_norm.png,0.40428015,TRUE,TRUE,3,0.490044871,red,m,0.2833,alien2,TRUE,2,0.153606564,12,1,0.472961766,x,0.7058,0,35,35,35,1,0.40428015,0.472961766,0.32270523,0.317792719,TRUE,,,,,,,,,,,,,,,,,,,,,,,,,,,,,,,,,
GOSH_A3,2023-11-09_13h11.15.097,two_step_task_legacy,2022.2.4,Win32,59.83008257,31,learning,0,resources/alien2_norm.png,0.466723822,resources/alien1_norm.png,0.419939613,TRUE,TRUE,3,0.335302956,red,m,0.3032,alien2,TRUE,2,0.418108714,13,1,0.466723822,x,0.3717,0,36,36,36,1,0.419939613,0.466723822,0.298331474,0.342618194,TRUE,,,,,,,,,,,,,,,,,,,,,,,,,,,,,,,,,
GOSH_A3,2023-11-09_13h11.15.097,two_step_task_legacy,2022.2.4,Win32,59.83008257,31,learning,0,resources/alien2_norm.png,0.45141104,resources/alien1_norm.png,0.444492901,TRUE,TRUE,3,0.034111406,red,m,0.2839,alien2,TRUE,2,0.286123772,14,1,0.45141104,x,0.445,0,37,37,37,1,0.444492901,0.45141104,0.326299774,0.343990348,TRUE,,,,,,,,,,,,,,,,,,,,,,,,,,,,,,,,,
GOSH_A3,2023-11-09_13h11.15.097,two_step_task_legacy,2022.2.4,Win32,59.83008257,31,learning,1,resources/alien3_norm.png,0.376848747,resources/alien4_norm.png,0.345560128,TRUE,TRUE,2,0.988448469,purple,m,0.2349,alien4,TRUE,3,0.449280951,14,0,0.345560128,m,1.5566,0,38,38,38,1,0.455119364,0.436675205,0.376848747,0.345560128,FALSE,,,,,,,,,,,,,,,,,,,,,,,,,,,,,,,,,
GOSH_A3,2023-11-09_13h11.15.097,two_step_task_legacy,2022.2.4,Win32,59.83008257,31,learning,0,resources/alien2_norm.png,0.398768533,resources/alien1_norm.png,0.473916732,TRUE,TRUE,3,0.339049798,red,m,0.3049,alien2,TRUE,3,0.879947277,14,0,0.398768533,x,0.8701,0,39,39,39,1,0.473916732,0.398768533,0.335948756,0.346374291,TRUE,,,,,,,,,,,,,,,,,,,,,,,,,,,,,,,,,
GOSH_A3,2023-11-09_13h11.15.097,two_step_task_legacy,2022.2.4,Win32,59.83008257,31,learning,0,resources/alien2_norm.png,0.38513003,resources/alien1_norm.png,0.453608657,TRUE,TRUE,3,0.627681385,red,m,0.287,alien1,TRUE,2,0.363585128,15,1,0.453608657,m,0.9951,0,40,40,40,1,0.453608657,0.38513003,0.326012081,0.372665099,TRUE,,,,,,,,,,,,,,,,,,,,,,,,,,,,,,,,,
GOSH_A3,2023-11-09_13h11.15.097,two_step_task_legacy,2022.2.4,Win32,59.83008257,31,learning,1,resources/alien3_norm.png,0.334182437,resources/alien4_norm.png,0.335910067,TRUE,TRUE,2,0.719547423,purple,m,0.2751,alien3,TRUE,3,0.630038532,15,0,0.334182437,x,1.4492,0,41,41,41,1,0.489633997,0.375083918,0.334182437,0.335910067,FALSE,,,,,,,,,,,,,,,,,,,,,,,,,,,,,,,,,
GOSH_A3,2023-11-09_13h11.15.097,two_step_task_legacy,2022.2.4,Win32,59.83008257,31,learning,1,resources/alien3_norm.png,0.367358515,resources/alien4_norm.png,0.390560607,TRUE,TRUE,2,0.899137258,purple,m,0.2124,alien4,TRUE,3,0.946709121,15,0,0.390560607,m,1.9308,0,42,42,42,1,0.474630434,0.360235648,0.367358515,0.390560607,FALSE,,,,,,,,,,,,,,,,,,,,,,,,,,,,,,,,,
GOSH_A3,2023-11-09_13h11.15.097,two_step_task_legacy,2022.2.4,Win32,59.83008257,31,learning,0,resources/alien1_norm.png,0.42951809,resources/alien2_norm.png,0.378313685,TRUE,TRUE,3,0.223055384,red,m,0.5335,alien1,TRUE,3,0.431421118,15,0,0.42951809,x,0.7561,0,43,43,43,1,0.42951809,0.378313685,0.373864787,0.377396931,FALSE,,,,,,,,,,,,,,,,,,,,,,,,,,,,,,,,,
GOSH_A3,2023-11-09_13h11.15.097,two_step_task_legacy,2022.2.4,Win32,59.83008257,31,learning,0,resources/alien1_norm.png,0.41423471,resources/alien2_norm.png,0.375580743,TRUE,TRUE,3,0.559473734,red,m,0.3833,alien2,TRUE,3,0.675579942,15,0,0.375580743,m,1.1307,0,44,44,44,1,0.41423471,0.375580743,0.366064191,0.332046545,FALSE,,,,,,,,,,,,,,,,,,,,,,,,,,,,,,,,,
GOSH_A3,2023-11-09_13h11.15.097,two_step_task_legacy,2022.2.4,Win32,59.83008257,31,learning,1,resources/alien1_norm.png,0.426559955,resources/alien2_norm.png,0.380099227,TRUE,TRUE,3,0.899069401,red,x,0.5947,alien2,TRUE,3,0.668810592,15,0,0.380099227,m,1.0295,0,45,45,45,1,0.426559955,0.380099227,0.367658769,0.330900517,FALSE,,,,,,,,,,,,,,,,,,,,,,,,,,,,,,,,,
GOSH_A3,2023-11-09_13h11.15.097,two_step_task_legacy,2022.2.4,Win32,59.83008257,31,learning,0,resources/alien3_norm.png,0.395073602,resources/alien4_norm.png,0.338616562,TRUE,TRUE,2,0.309819103,purple,x,0.3499,alien3,TRUE,3,0.639917645,15,0,0.395073602,x,0.6384,0,46,46,46,1,0.433874659,0.393618887,0.395073602,0.338616562,FALSE,,,,,,,,,,,,,,,,,,,,,,,,,,,,,,,,,
GOSH_A3,2023-11-09_13h11.15.097,two_step_task_legacy,2022.2.4,Win32,59.83008257,31,learning,0,resources/alien1_norm.png,0.450295057,resources/alien2_norm.png,0.430653864,TRUE,TRUE,3,0.423630298,red,m,0.2373,alien1,TRUE,3,0.65181141,15,0,0.450295057,x,1.1941,0,47,47,47,1,0.450295057,0.430653864,0.374609818,0.334729338,FALSE,,,,,,,,,,,,,,,,,,,,,,,,,,,,,,,,,
GOSH_A3,2023-11-09_13h11.15.097,two_step_task_legacy,2022.2.4,Win32,59.83008257,31,learning,0,resources/alien2_norm.png,0.418768244,resources/alien1_norm.png,0.418756289,TRUE,TRUE,3,0.351222703,red,m,0.651,alien2,TRUE,3,0.94983173,15,0,0.418768244,x,1.0013,0,48,48,48,1,0.418756289,0.418768244,0.371436141,0.305376419,TRUE,,,,,,,,,,,,,,,,,,,,,,,,,,,,,,,,,
GOSH_A3,2023-11-09_13h11.15.097,two_step_task_legacy,2022.2.4,Win32,59.83008257,31,learning,1,resources/alien1_norm.png,0.429931164,resources/alien2_norm.png,0.416026779,TRUE,TRUE,3,0.98447613,red,x,0.3779,alien2,TRUE,2,0.385872773,16,1,0.416026779,m,0.9132,0,49,49,49,1,0.429931164,0.416026779,0.378685217,0.277158008,FALSE,,,,,,,,,,,,,,,,,,,,,,,,,,,,,,,,,
GOSH_A3,2023-11-09_13h11.15.097,two_step_task_legacy,2022.2.4,Win32,59.83008257,31,learning,0,resources/alien2_norm.png,0.403669602,resources/alien1_norm.png,0.423189948,TRUE,TRUE,3,0.293118815,red,m,0.8839,alien2,TRUE,2,0.267702392,17,1,0.403669602,x,0.8231,0,50,50,50,1,0.423189948,0.403669602,0.404191826,0.259920018,TRUE,,,,,,,,,,,,,,,,,,,,,,,,,,,,,,,,,
GOSH_A3,2023-11-09_13h11.15.097,two_step_task_legacy,2022.2.4,Win32,59.83008257,31,learning,1,resources/alien3_norm.png,0.386712818,resources/alien4_norm.png,0.262864975,TRUE,TRUE,2,0.967464801,purple,m,0.3378,alien3,TRUE,3,0.458205792,17,0,0.386712818,x,1.0403,0,51,51,51,1,0.46566155,0.388479588,0.386712818,0.262864975,FALSE,,,,,,,,,,,,,,,,,,,,,,,,,,,,,,,,,
GOSH_A3,2023-11-09_13h11.15.097,two_step_task_legacy,2022.2.4,Win32,59.83008257,31,learning,1,resources/alien1_norm.png,0.479911798,resources/alien2_norm.png,0.414122928,TRUE,TRUE,3,0.947942071,red,x,0.2841,alien2,TRUE,3,0.966287904,17,0,0.414122928,m,0.9508,0,52,52,52,1,0.479911798,0.414122928,0.391960252,0.285583615,FALSE,,,,,,,,,,,,,,,,,,,,,,,,,,,,,,,,,
GOSH_A3,2023-11-09_13h11.15.097,two_step_task_legacy,2022.2.4,Win32,59.83008257,31,learning,0,resources/alien1_norm.png,0.501808655,resources/alien2_norm.png,0.4061242,TRUE,TRUE,3,0.344882293,red,m,0.2675,alien1,TRUE,3,0.8437193,17,0,0.501808655,x,0.9855,0,53,53,53,1,0.501808655,0.4061242,0.399745987,0.299540972,FALSE,,,,,,,,,,,,,,,,,,,,,,,,,,,,,,,,,
GOSH_A3,2023-11-09_13h11.15.097,two_step_task_legacy,2022.2.4,Win32,59.83008257,31,learning,0,resources/alien4_norm.png,0.276023362,resources/alien3_norm.png,0.380062342,TRUE,TRUE,2,0.645509978,purple,x,0.0538,alien4,TRUE,3,0.808483211,17,0,0.276023362,x,1.1604,0,54,54,54,1,0.527708274,0.359177564,0.380062342,0.276023362,TRUE,,,,,,,,,,,,,,,,,,,,,,,,,,,,,,,,,
GOSH_A3,2023-11-09_13h11.15.097,two_step_task_legacy,2022.2.4,Win32,59.83008257,31,learning,1,resources/alien3_norm.png,0.369346775,resources/alien4_norm.png,0.283917662,TRUE,TRUE,2,0.899184412,purple,m,0.2943,alien3,TRUE,3,0.498130124,17,0,0.369346775,x,1.8719,0,55,55,55,1,0.467096746,0.335192551,0.369346775,0.283917662,FALSE,,,,,,,,,,,,,,,,,,,,,,,,,,,,,,,,,
GOSH_A3,2023-11-09_13h11.15.097,two_step_task_legacy,2022.2.4,Win32,59.83008257,31,learning,1,resources/alien4_norm.png,0.32981414,resources/alien3_norm.png,0.343447378,TRUE,TRUE,2,0.868252311,purple,m,0.4042,alien3,TRUE,2,0.211879324,18,1,0.343447378,m,1.1544,0,56,56,56,1,0.474303155,0.326440982,0.343447378,0.32981414,TRUE,,,,,,,,,,,,,,,,,,,,,,,,,,,,,,,,,
GOSH_A3,2023-11-09_13h11.15.097,two_step_task_legacy,2022.2.4,Win32,59.83008257,31,learning,0,resources/alien1_norm.png,0.494860486,resources/alien2_norm.png,0.328796997,TRUE,TRUE,3,0.576808987,red,m,0.2849,alien1,TRUE,3,0.729702845,18,0,0.494860486,x,1.0536,0,57,57,57,1,0.494860486,0.328796997,0.366063729,0.321408807,FALSE,,,,,,,,,,,,,,,,,,,,,,,,,,,,,,,,,
GOSH_A3,2023-11-09_13h11.15.097,two_step_task_legacy,2022.2.4,Win32,59.83008257,31,learning,0,resources/alien3_norm.png,0.361259173,resources/alien4_norm.png,0.358143684,TRUE,TRUE,2,0.384946262,purple,x,0.2007,alien3,TRUE,2,0.265354348,19,1,0.361259173,x,0.6358,0,58,58,58,1,0.50196401,0.330964254,0.361259173,0.358143684,FALSE,,,,,,,,,,,,,,,,,,,,,,,,,,,,,,,,,
GOSH_A3,2023-11-09_13h11.15.097,two_step_task_legacy,2022.2.4,Win32,59.83008257,31,learning,0,resources/alien3_norm.png,0.387683492,resources/alien4_norm.png,0.363990185,TRUE,TRUE,2,0.462855737,purple,x,0.2485,alien3,TRUE,2,0.361294677,20,1,0.387683492,x,0.4263,0,59,59,59,1,0.482347299,0.323248675,0.387683492,0.363990185,FALSE,,,,,,,,,,,,,,,,,,,,,,,,,,,,,,,,,
GOSH_A3,2023-11-09_13h11.15.097,two_step_task_legacy,2022.2.4,Win32,59.83008257,31,learning,0,resources/alien4_norm.png,0.327016223,resources/alien3_norm.png,0.409203884,TRUE,TRUE,2,0.202302706,purple,x,0.2202,alien3,TRUE,3,0.742183426,20,0,0.409203884,m,0.5286,0,60,60,60,1,0.494040163,0.326370924,0.409203884,0.327016223,TRUE,,,,,,,,,,,,,,,,,,,,,,,,,,,,,,,,,
GOSH_A3,2023-11-09_13h11.15.097,two_step_task_legacy,2022.2.4,Win32,59.83008257,31,learning,1,resources/alien2_norm.png,0.31229175,resources/alien1_norm.png,0.49145617,TRUE,TRUE,3,0.816430136,red,x,0.428,alien2,TRUE,3,0.744328835,20,0,0.31229175,x,1.2922,0,61,61,61,1,0.49145617,0.31229175,0.431822039,0.324176298,TRUE,,,,,,,,,,,,,,,,,,,,,,,,,,,,,,,,,
GOSH_A3,2023-11-09_13h11.15.097,two_step_task_legacy,2022.2.4,Win32,59.83008257,31,learning,0,resources/alien4_norm.png,0.277711474,resources/alien3_norm.png,0.446935292,TRUE,TRUE,2,0.258601925,purple,x,0.0811,alien4,TRUE,3,0.830029149,20,0,0.277711474,x,1.3228,0,62,62,62,1,0.511059825,0.357426084,0.446935292,0.277711474,TRUE,,,,,,,,,,,,,,,,,,,,,,,,,,,,,,,,,
GOSH_A3,2023-11-09_13h11.15.097,two_step_task_legacy,2022.2.4,Win32,59.83008257,31,learning,0,resources/alien3_norm.png,0.438854963,resources/alien4_norm.png,0.255687654,TRUE,TRUE,2,0.081545891,purple,x,0.1599,alien3,TRUE,2,0.330166528,21,1,0.438854963,x,1.2515,0,63,63,63,1,0.494441472,0.355296369,0.438854963,0.255687654,FALSE,,,,,,,,,,,,,,,,,,,,,,,,,,,,,,,,,
GOSH_A3,2023-11-09_13h11.15.097,two_step_task_legacy,2022.2.4,Win32,59.83008257,31,learning,1,resources/alien1_norm.png,0.501267645,resources/alien2_norm.png,0.315888865,TRUE,TRUE,3,0.714637633,red,x,0.2208,alien2,TRUE,3,0.943467859,21,0,0.315888865,m,0.6432,0,64,64,64,1,0.501267645,0.315888865,0.43066716,0.256335775,FALSE,,,,,,,,,,,,,,,,,,,,,,,,,,,,,,,,,
GOSH_A3,2023-11-09_13h11.15.097,two_step_task_legacy,2022.2.4,Win32,59.83008257,31,learning,0,resources/alien1_norm.png,0.536221092,resources/alien2_norm.png,0.322265245,TRUE,TRUE,3,0.636549943,red,m,0.1486,alien1,TRUE,3,0.609899975,21,0,0.536221092,x,0.8714,0,65,65,65,1,0.536221092,0.322265245,0.411973809,0.252225673,FALSE,,,,,,,,,,,,,,,,,,,,,,,,,,,,,,,,,
GOSH_A3,2023-11-09_13h11.15.097,two_step_task_legacy,2022.2.4,Win32,59.83008257,31,learning,0,resources/alien3_norm.png,0.400940636,resources/alien4_norm.png,0.314647835,TRUE,TRUE,2,0.489905985,purple,x,0.3667,alien3,TRUE,3,0.892457607,21,0,0.400940636,x,0.7923,0,66,66,66,1,0.481776625,0.29380361,0.400940636,0.314647835,FALSE,,,,,,,,,,,,,,,,,,,,,,,,,,,,,,,,,
GOSH_A3,2023-11-09_13h11.15.097,two_step_task_legacy,2022.2.4,Win32,59.83008257,31,learning,0,resources/alien2_norm.png,0.329519782,resources/alien1_norm.png,0.488125242,TRUE,TRUE,3,0.542400012,red,m,0.274,alien2,TRUE,3,0.482158075,21,0,0.329519782,x,0.4823,0,67,67,67,1,0.488125242,0.329519782,0.414957261,0.315169276,TRUE,,,,,,,,,,,,,,,,,,,,,,,,,,,,,,,,,
GOSH_A3,2023-11-09_13h11.15.097,two_step_task_legacy,2022.2.4,Win32,59.83008257,31,learning,0,resources/alien1_norm.png,0.541427607,resources/alien2_norm.png,0.300885739,TRUE,TRUE,3,0.366808375,red,m,0.2316,alien1,TRUE,2,0.130525354,22,1,0.541427607,x,2.243,0,68,68,68,1,0.541427607,0.300885739,0.44505351,0.330896545,FALSE,,,,,,,,,,,,,,,,,,,,,,,,,,,,,,,,,
GOSH_A3,2023-11-09_13h11.15.097,two_step_task_legacy,2022.2.4,Win32,59.83008257,31,learning,1,resources/alien4_norm.png,0.354145584,resources/alien3_norm.png,0.449474267,TRUE,TRUE,2,0.844117003,purple,m,0.2674,alien3,TRUE,3,0.802216077,22,0,0.449474267,m,1.2294,0,69,69,69,1,0.533882143,0.290887465,0.449474267,0.354145584,TRUE,,,,,,,,,,,,,,,,,,,,,,,,,,,,,,,,,
GOSH_A3,2023-11-09_13h11.15.097,two_step_task_legacy,2022.2.4,Win32,59.83008257,31,learning,0,resources/alien1_norm.png,0.559255734,resources/alien2_norm.png,0.302664213,TRUE,TRUE,3,0.591942729,red,m,0.0705,alien1,TRUE,2,0.312461267,23,1,0.559255734,x,1.475,0,70,70,70,1,0.559255734,0.302664213,0.456770851,0.350719962,FALSE,,,,,,,,,,,,,,,,,,,,,,,,,,,,,,,,,
GOSH_A3,2023-11-09_13h11.15.097,two_step_task_legacy,2022.2.4,Win32,59.83008257,31,learning,0,resources/alien1_norm.png,0.591020595,resources/alien2_norm.png,0.312228833,TRUE,TRUE,3,0.65843051,red,m,0.4041,alien1,TRUE,3,0.860031513,23,0,0.591020595,x,0.4177,0,71,71,71,1,0.591020595,0.312228833,0.436127673,0.33450298,FALSE,,,,,,,,,,,,,,,,,,,,,,,,,,,,,,,,,
GOSH_A3,2023-11-09_13h11.15.097,two_step_task_legacy,2022.2.4,Win32,59.83008257,31,learning,0,resources/alien3_norm.png,0.448742333,resources/alien4_norm.png,0.387594367,TRUE,TRUE,2,0.353173278,purple,x,0.2842,alien3,TRUE,2,0.336873032,24,1,0.448742333,x,0.5889,0,72,72,72,1,0.594700632,0.287034498,0.448742333,0.387594367,FALSE,,,,,,,,,,,,,,,,,,,,,,,,,,,,,,,,,
GOSH_A3,2023-11-09_13h11.15.097,two_step_task_legacy,2022.2.4,Win32,59.83008257,31,learning,0,resources/alien4_norm.png,0.365147156,resources/alien3_norm.png,0.45204078,TRUE,TRUE,2,0.305008919,purple,x,0.1266,alien3,TRUE,2,0.025736465,25,1,0.45204078,m,0.5024,0,73,73,73,1,0.574048882,0.273630571,0.45204078,0.365147156,TRUE,,,,,,,,,,,,,,,,,,,,,,,,,,,,,,,,,
GOSH_A3,2023-11-09_13h11.15.097,two_step_task_legacy,2022.2.4,Win32,59.83008257,31,learning,0,resources/alien1_norm.png,0.552605568,resources/alien2_norm.png,0.290909549,TRUE,TRUE,3,0.53658709,red,m,0.2506,alien2,TRUE,3,0.97439843,25,0,0.290909549,m,1.3504,0,74,74,74,1,0.552605568,0.290909549,0.449524946,0.353912716,FALSE,,,,,,,,,,,,,,,,,,,,,,,,,,,,,,,,,
GOSH_A3,2023-11-09_13h11.15.097,two_step_task_legacy,2022.2.4,Win32,59.83008257,31,learning,0,resources/alien3_norm.png,0.432600501,resources/alien4_norm.png,0.34362545,TRUE,TRUE,2,0.020436937,purple,x,0.2149,alien3,TRUE,3,0.550928407,25,0,0.432600501,x,0.4322,0,75,75,75,1,0.550607225,0.314621574,0.432600501,0.34362545,FALSE,,,,,,,,,,,,,,,,,,,,,,,,,,,,,,,,,
GOSH_A3,2023-11-09_13h11.15.097,two_step_task_legacy,2022.2.4,Win32,59.83008257,31,learning,0,resources/alien2_norm.png,0.300092266,resources/alien1_norm.png,0.612764323,TRUE,TRUE,3,0.246206607,red,m,0.2385,alien2,TRUE,3,0.891878526,25,0,0.300092266,x,1.0272,0,76,76,76,1,0.612764323,0.300092266,0.490582508,0.398436323,TRUE,,,,,,,,,,,,,,,,,,,,,,,,,,,,,,,,,
GOSH_A3,2023-11-09_13h11.15.097,two_step_task_legacy,2022.2.4,Win32,59.83008257,31,learning,0,resources/alien2_norm.png,0.278549358,resources/alien1_norm.png,0.587251873,TRUE,TRUE,3,0.035570123,red,m,0.2998,alien1,TRUE,3,0.962566865,25,0,0.587251873,m,0.4116,0,77,77,77,1,0.587251873,0.278549358,0.492353439,0.398407271,TRUE,,,,,,,,,,,,,,,,,,,,,,,,,,,,,,,,,
GOSH_A3,2023-11-09_13h11.15.097,two_step_task_legacy,2022.2.4,Win32,59.83008257,31,learning,1,resources/alien2_norm.png,0.318845118,resources/alien1_norm.png,0.557449326,TRUE,TRUE,3,0.702186739,red,x,0.3168,alien2,TRUE,2,0.18869787,26,1,0.318845118,x,0.8179,0,78,78,78,1,0.557449326,0.318845118,0.541074618,0.399018819,TRUE,,,,,,,,,,,,,,,,,,,,,,,,,,,,,,,,,
GOSH_A3,2023-11-09_13h11.15.097,two_step_task_legacy,2022.2.4,Win32,59.83008257,31,learning,0,resources/alien3_norm.png,0.557363459,resources/alien4_norm.png,0.416277847,TRUE,TRUE,2,0.35618208,purple,x,0.2396,alien4,TRUE,2,0.236117761,27,1,0.416277847,m,1.189,0,79,79,79,1,0.53420459,0.312851037,0.557363459,0.416277847,FALSE,,,,,,,,,,,,,,,,,,,,,,,,,,,,,,,,,
GOSH_A3,2023-11-09_13h11.15.097,two_step_task_legacy,2022.2.4,Win32,59.83008257,31,learning,1,resources/alien4_norm.png,0.407522818,resources/alien3_norm.png,0.526107178,TRUE,TRUE,2,0.732358201,purple,m,0.3204,alien4,TRUE,3,0.766981514,27,0,0.407522818,x,0.9374,0,80,80,80,1,0.511426408,0.297986444,0.526107178,0.407522818,TRUE,,,,,,,,,,,,,,,,,,,,,,,,,,,,,,,,,
GOSH_A3,2023-11-09_13h11.15.097,two_step_task_legacy,2022.2.4,Win32,59.83008257,31,learning,0,resources/alien1_norm.png,0.544471121,resources/alien2_norm.png,0.274865796,TRUE,TRUE,3,0.038201864,red,m,0.34,alien2,TRUE,3,0.90019705,27,0,0.274865796,m,0.8415,0,81,81,81,1,0.544471121,0.274865796,0.527480151,0.407521571,FALSE,,,,,,,,,,,,,,,,,,,,,,,,,,,,,,,,,
GOSH_A3,2023-11-09_13h11.15.097,two_step_task_legacy,2022.2.4,Win32,59.83008257,31,learning,0,resources/alien1_norm.png,0.519319193,resources/alien2_norm.png,0.291138489,TRUE,TRUE,3,0.238366702,red,m,0.6009,alien1,TRUE,3,0.694220116,27,0,0.519319193,x,0.6111,0,82,82,82,1,0.519319193,0.291138489,0.551089596,0.401095167,FALSE,,,,,,,,,,,,,,,,,,,,,,,,,,,,,,,,,
GOSH_A3,2023-11-09_13h11.15.097,two_step_task_legacy,2022.2.4,Win32,59.83008257,31,learning,1,resources/alien2_norm.png,0.274829592,resources/alien1_norm.png,0.517664442,TRUE,TRUE,3,0.993329102,red,x,0.1774,alien1,TRUE,3,0.833741379,27,0,0.517664442,m,1.2073,0,83,83,83,1,0.517664442,0.274829592,0.524023759,0.392918668,TRUE,,,,,,,,,,,,,,,,,,,,,,,,,,,,,,,,,
GOSH_A3,2023-11-09_13h11.15.097,two_step_task_legacy,2022.2.4,Win32,59.83008257,31,learning,0,resources/alien3_norm.png,0.554344939,resources/alien4_norm.png,0.38112781,TRUE,TRUE,2,0.678205553,purple,x,0.2812,alien3,TRUE,2,0.03413301,28,1,0.554344939,x,0.6178,0,84,84,84,1,0.50709655,0.266925426,0.554344939,0.38112781,FALSE,,,,,,,,,,,,,,,,,,,,,,,,,,,,,,,,,
GOSH_A3,2023-11-09_13h11.15.097,two_step_task_legacy,2022.2.4,Win32,59.83008257,31,learning,0,resources/alien4_norm.png,0.395878674,resources/alien3_norm.png,0.561296543,TRUE,TRUE,2,0.190273951,purple,x,0.1956,alien3,TRUE,2,0.394727273,29,1,0.561296543,m,0.5616,0,85,85,85,1,0.482095029,0.274678686,0.561296543,0.395878674,TRUE,,,,,,,,,,,,,,,,,,,,,,,,,,,,,,,,,
GOSH_A3,2023-11-09_13h11.15.097,two_step_task_legacy,2022.2.4,Win32,59.83008257,31,learning,0,resources/alien1_norm.png,0.431502757,resources/alien2_norm.png,0.331137536,TRUE,TRUE,3,0.490043659,red,m,0.2711,alien2,TRUE,2,0.171799684,30,1,0.331137536,m,1.8512,0,86,86,86,1,0.431502757,0.331137536,0.55285745,0.340142532,FALSE,,,,,,,,,,,,,,,,,,,,,,,,,,,,,,,,,
GOSH_A3,2023-11-09_13h11.15.097,two_step_task_legacy,2022.2.4,Win32,59.83008257,31,learning,0,resources/alien2_norm.png,0.320477847,resources/alien1_norm.png,0.425694082,TRUE,TRUE,3,0.248786618,red,m,0.4509,alien2,TRUE,3,0.567417922,30,0,0.320477847,x,0.8877,0,87,87,87,1,0.425694082,0.320477847,0.558768815,0.349462751,TRUE,,,,,,,,,,,,,,,,,,,,,,,,,,,,,,,,,
GOSH_A3,2023-11-09_13h11.15.097,two_step_task_legacy,2022.2.4,Win32,59.83008257,31,learning,0,resources/alien1_norm.png,0.423235387,resources/alien2_norm.png,0.319443506,TRUE,TRUE,3,0.511961243,red,m,0.6402,alien1,TRUE,2,0.151258493,31,1,0.423235387,x,0.7714,0,88,88,88,1,0.423235387,0.319443506,0.559539158,0.367816979,FALSE,,,,,,,,,,,,,,,,,,,,,,,,,,,,,,,,,
GOSH_A3,2023-11-09_13h11.15.097,two_step_task_legacy,2022.2.4,Win32,59.83008257,31,learning,0,resources/alien3_norm.png,0.519440499,resources/alien4_norm.png,0.369930466,TRUE,TRUE,2,0.632075669,purple,x,0.2339,alien3,TRUE,2,0.162982903,32,1,0.519440499,x,0.8377,0,89,89,89,1,0.418674083,0.358569907,0.519440499,0.369930466,FALSE,,,,,,,,,,,,,,,,,,,,,,,,,,,,,,,,,
GOSH_A3,2023-11-09_13h11.15.097,two_step_task_legacy,2022.2.4,Win32,59.83008257,31,learning,0,resources/alien3_norm.png,0.520165644,resources/alien4_norm.png,0.361172441,TRUE,TRUE,2,0.37886392,purple,x,0.2341,alien3,TRUE,2,0.088818952,33,1,0.520165644,x,0.4851,0,90,90,90,1,0.445341618,0.335226703,0.520165644,0.361172441,FALSE,,,,,,,,,,,,,,,,,,,,,,,,,,,,,,,,,
GOSH_A3,2023-11-09_13h11.15.097,two_step_task_legacy,2022.2.4,Win32,59.83008257,31,learning,0,resources/alien4_norm.png,0.372597807,resources/alien3_norm.png,0.489104433,TRUE,TRUE,2,0.32077195,purple,x,0.1795,alien3,TRUE,3,0.796500869,33,0,0.489104433,m,0.8289,0,91,91,91,1,0.445029892,0.410956136,0.489104433,0.372597807,TRUE,,,,,,,,,,,,,,,,,,,,,,,,,,,,,,,,,
GOSH_A3,2023-11-09_13h11.15.097,two_step_task_legacy,2022.2.4,Win32,59.83008257,31,learning,0,resources/alien4_norm.png,0.385293245,resources/alien3_norm.png,0.497118821,TRUE,TRUE,2,0.22162588,purple,x,0.033,alien4,TRUE,3,0.818913118,33,0,0.385293245,x,0.5393,0,92,92,92,1,0.468728915,0.429483789,0.497118821,0.385293245,TRUE,,,,,,,,,,,,,,,,,,,,,,,,,,,,,,,,,
GOSH_A3,2023-11-09_13h11.15.097,two_step_task_legacy,2022.2.4,Win32,59.83008257,31,learning,1,resources/alien3_norm.png,0.528385794,resources/alien4_norm.png,0.37549589,TRUE,TRUE,2,0.77060332,purple,m,0.2333,alien4,TRUE,3,0.575407568,33,0,0.37549589,m,0.8173,0,93,93,93,1,0.475258006,0.418398241,0.528385794,0.37549589,FALSE,,,,,,,,,,,,,,,,,,,,,,,,,,,,,,,,,
GOSH_A3,2023-11-09_13h11.15.097,two_step_task_legacy,2022.2.4,Win32,59.83008257,31,learning,0,resources/alien4_norm.png,0.379394416,resources/alien3_norm.png,0.521484087,TRUE,TRUE,2,0.474396609,purple,x,0.3273,alien3,TRUE,3,0.616323646,33,0,0.521484087,m,0.5564,0,94,94,94,1,0.512911999,0.429513936,0.521484087,0.379394416,TRUE,,,,,,,,,,,,,,,,,,,,,,,,,,,,,,,,,
GOSH_A3,2023-11-09_13h11.15.097,two_step_task_legacy,2022.2.4,Win32,59.83008257,31,learning,0,resources/alien1_norm.png,0.539517334,resources/alien2_norm.png,0.389427504,TRUE,TRUE,3,0.470123245,red,m,0.3038,alien1,TRUE,3,0.851238279,33,0,0.539517334,x,0.6032,0,95,95,95,1,0.539517334,0.389427504,0.527224749,0.348527437,FALSE,,,,,,,,,,,,,,,,,,,,,,,,,,,,,,,,,
GOSH_A3,2023-11-09_13h11.15.097,two_step_task_legacy,2022.2.4,Win32,59.83008257,31,learning,1,resources/alien1_norm.png,0.544323322,resources/alien2_norm.png,0.396279259,TRUE,TRUE,3,0.92039219,red,x,0.0162,alien2,TRUE,2,0.306060888,34,1,0.396279259,m,0.6716,0,96,96,96,1,0.544323322,0.396279259,0.533450367,0.310275624,FALSE,,,,,,,,,,,,,,,,,,,,,,,,,,,,,,,,,
GOSH_A3,2023-11-09_13h11.15.097,two_step_task_legacy,2022.2.4,Win32,59.83008257,31,learning,1,resources/alien2_norm.png,0.408374636,resources/alien1_norm.png,0.566216556,TRUE,TRUE,3,0.731623747,red,x,0.1996,alien2,TRUE,3,0.633436601,34,0,0.408374636,x,0.6297,0,97,97,97,1,0.566216556,0.408374636,0.562805675,0.328075738,TRUE,,,,,,,,,,,,,,,,,,,,,,,,,,,,,,,,,
GOSH_A3,2023-11-09_13h11.15.097,two_step_task_legacy,2022.2.4,Win32,59.83008257,31,learning,1,resources/alien4_norm.png,0.341376023,resources/alien3_norm.png,0.520753086,TRUE,TRUE,2,0.937062497,purple,m,0.2206,alien3,TRUE,2,0.199821174,35,1,0.520753086,m,0.4248,0,98,98,98,1,0.570274998,0.412026002,0.520753086,0.341376023,TRUE,,,,,,,,,,,,,,,,,,,,,,,,,,,,,,,,,
GOSH_A3,2023-11-09_13h11.15.097,two_step_task_legacy,2022.2.4,Win32,59.83008257,31,learning,0,resources/alien2_norm.png,0.399144843,resources/alien1_norm.png,0.566895624,TRUE,TRUE,3,0.52675001,red,m,0.1501,alien2,TRUE,2,0.1625448,36,1,0.399144843,x,0.7524,0,99,99,99,1,0.566895624,0.399144843,0.54429023,0.334840865,TRUE,,,,,,,,,,,,,,,,,,,,,,,,,,,,,,,,,
GOSH_A3,2023-11-09_13h11.15.097,two_step_task_legacy,2022.2.4,Win32,59.83008257,31,learning,0,resources/alien2_norm.png,0.424889032,resources/alien1_norm.png,0.562314943,TRUE,TRUE,3,0.576835541,red,m,0.2264,alien2,TRUE,2,0.37235378,37,1,0.424889032,x,0.6727,0,100,100,100,1,0.562314943,0.424889032,0.536613682,0.311110319,TRUE,,,,,,,,,,,,,,,,,,,,,,,,,,,,,,,,,
GOSH_A3,2023-11-09_13h11.15.097,two_step_task_legacy,2022.2.4,Win32,59.83008257,31,learning,1,resources/alien3_norm.png,0.520983923,resources/alien4_norm.png,0.316353152,TRUE,TRUE,2,0.907148378,purple,m,0.3334,alien4,TRUE,2,0.051493016,38,1,0.316353152,m,1.2225,0,101,101,101,1,0.524140525,0.413216171,0.520983923,0.316353152,FALSE,,,,,,,,,,,,,,,,,,,,,,,,,,,,,,,,,
GOSH_A3,2023-11-09_13h11.15.097,two_step_task_legacy,2022.2.4,Win32,59.83008257,31,learning,0,resources/alien1_norm.png,0.531718216,resources/alien2_norm.png,0.41264003,TRUE,TRUE,3,0.590502315,red,m,0.298,alien1,TRUE,3,0.626573232,38,0,0.531718216,x,0.8917,0,102,102,102,1,0.531718216,0.41264003,0.500332353,0.315070893,FALSE,,,,,,,,,,,,,,,,,,,,,,,,,,,,,,,,,
GOSH_A3,2023-11-09_13h11.15.097,two_step_task_legacy,2022.2.4,Win32,59.83008257,31,learning,0,resources/alien1_norm.png,0.515214637,resources/alien2_norm.png,0.414336669,TRUE,TRUE,3,0.000481154,red,m,0.2882,alien2,TRUE,2,0.174171513,39,1,0.414336669,m,0.535,0,103,103,103,1,0.515214637,0.414336669,0.505772512,0.319951423,FALSE,,,,,,,,,,,,,,,,,,,,,,,,,,,,,,,,,
GOSH_A3,2023-11-09_13h11.15.097,two_step_task_legacy,2022.2.4,Win32,59.83008257,31,learning,0,resources/alien1_norm.png,0.501395054,resources/alien2_norm.png,0.388359403,TRUE,TRUE,3,0.611932956,red,m,0.2637,alien2,TRUE,3,0.828897523,39,0,0.388359403,m,0.5595,0,104,104,104,1,0.501395054,0.388359403,0.474256044,0.34789239,FALSE,,,,,,,,,,,,,,,,,,,,,,,,,,,,,,,,,
GOSH_A3,2023-11-09_13h11.15.097,two_step_task_legacy,2022.2.4,Win32,59.83008257,31,learning,0,resources/alien3_norm.png,0.482628218,resources/alien4_norm.png,0.369110125,TRUE,TRUE,2,0.234518105,purple,x,0.3208,alien4,TRUE,2,0.358444775,40,1,0.369110125,m,0.6942,0,105,105,105,1,0.535437416,0.376983664,0.482628218,0.369110125,FALSE,,,,,,,,,,,,,,,,,,,,,,,,,,,,,,,,,
GOSH_A3,2023-11-09_13h11.15.097,two_step_task_legacy,2022.2.4,Win32,59.83008257,31,learning,0,resources/alien3_norm.png,0.461077677,resources/alien4_norm.png,0.38101395,TRUE,TRUE,2,0.346860796,purple,x,0.226,alien4,TRUE,3,0.499110638,40,0,0.38101395,m,0.4439,0,106,106,106,1,0.538694532,0.372391436,0.461077677,0.38101395,FALSE,,,,,,,,,,,,,,,,,,,,,,,,,,,,,,,,,
GOSH_A3,2023-11-09_13h11.15.097,two_step_task_legacy,2022.2.4,Win32,59.83008257,31,learning,0,resources/alien3_norm.png,0.449785692,resources/alien4_norm.png,0.37123011,TRUE,TRUE,2,0.082201862,purple,x,0.3674,alien3,TRUE,2,0.029060534,41,1,0.449785692,x,0.285,0,107,107,107,1,0.574921964,0.364053666,0.449785692,0.37123011,FALSE,,,,,,,,,,,,,,,,,,,,,,,,,,,,,,,,,
GOSH_A3,2023-11-09_13h11.15.097,two_step_task_legacy,2022.2.4,Win32,59.83008257,31,learning,1,resources/alien2_norm.png,0.344268264,resources/alien1_norm.png,0.579335317,TRUE,TRUE,3,0.744646987,red,x,0.1978,alien1,TRUE,3,0.635385526,41,0,0.579335317,m,0.9012,0,108,108,108,1,0.579335317,0.344268264,0.508032371,0.404530221,TRUE,,,,,,,,,,,,,,,,,,,,,,,,,,,,,,,,,
GOSH_A3,2023-11-09_13h11.15.097,two_step_task_legacy,2022.2.4,Win32,59.83008257,31,learning,0,resources/alien4_norm.png,0.43595818,resources/alien3_norm.png,0.529669072,TRUE,TRUE,2,0.060621151,purple,x,0.2245,alien3,TRUE,2,0.520757456,42,1,0.529669072,m,0.4603,0,109,109,109,1,0.537947877,0.336579885,0.529669072,0.43595818,TRUE,,,,,,,,,,,,,,,,,,,,,,,,,,,,,,,,,
GOSH_A3,2023-11-09_13h11.15.097,two_step_task_legacy,2022.2.4,Win32,59.83008257,31,learning,0,resources/alien2_norm.png,0.357778041,resources/alien1_norm.png,0.545291717,TRUE,TRUE,3,0.575735581,red,m,0.1947,alien2,TRUE,2,0.054113282,43,1,0.357778041,x,1.2279,0,110,110,110,1,0.545291717,0.357778041,0.466519079,0.463961387,TRUE,,,,,,,,,,,,,,,,,,,,,,,,,,,,,,,,,
GOSH_A3,2023-11-09_13h11.15.097,two_step_task_legacy,2022.2.4,Win32,59.83008257,31,learning,0,resources/alien1_norm.png,0.563154971,resources/alien2_norm.png,0.323993397,TRUE,TRUE,3,0.554064402,red,m,0.2885,alien2,TRUE,3,0.681429765,43,0,0.323993397,m,0.5333,0,111,111,111,1,0.563154971,0.323993397,0.481244805,0.469580664,FALSE,,,,,,,,,,,,,,,,,,,,,,,,,,,,,,,,,
GOSH_A3,2023-11-09_13h11.15.097,two_step_task_legacy,2022.2.4,Win32,59.83008257,31,learning,1,resources/alien2_norm.png,0.343947487,resources/alien1_norm.png,0.564024248,TRUE,TRUE,3,0.920684431,red,x,0.1294,alien2,TRUE,3,0.572322469,43,0,0.343947487,x,0.6447,0,112,112,112,1,0.564024248,0.343947487,0.484575242,0.444113532,TRUE,,,,,,,,,,,,,,,,,,,,,,,,,,,,,,,,,
GOSH_A3,2023-11-09_13h11.15.097,two_step_task_legacy,2022.2.4,Win32,59.83008257,31,learning,0,resources/alien2_norm.png,0.319841751,resources/alien1_norm.png,0.614090142,TRUE,TRUE,3,0.568634738,red,m,0.7455,alien2,TRUE,3,0.802795268,43,0,0.319841751,x,0.6876,0,113,113,113,1,0.614090142,0.319841751,0.485075938,0.431112029,TRUE,,,,,,,,,,,,,,,,,,,,,,,,,,,,,,,,,
GOSH_A3,2023-11-09_13h11.15.097,two_step_task_legacy,2022.2.4,Win32,59.83008257,31,learning,1,resources/alien4_norm.png,0.46002207,resources/alien3_norm.png,0.498414866,TRUE,TRUE,2,0.801609226,purple,m,0.2548,alien3,TRUE,2,0.043836003,44,1,0.498414866,m,0.6651,0,114,114,114,1,0.634874305,0.344321909,0.498414866,0.46002207,TRUE,,,,,,,,,,,,,,,,,,,,,,,,,,,,,,,,,
GOSH_A3,2023-11-09_13h11.15.097,two_step_task_legacy,2022.2.4,Win32,59.83008257,31,learning,0,resources/alien2_norm.png,0.350871794,resources/alien1_norm.png,0.63430206,TRUE,TRUE,3,0.410954676,red,m,0.2606,alien1,TRUE,2,0.023317743,45,1,0.63430206,m,0.8341,0,115,115,115,1,0.63430206,0.350871794,0.50555614,0.50377738,TRUE,,,,,,,,,,,,,,,,,,,,,,,,,,,,,,,,,
GOSH_A3,2023-11-09_13h11.15.097,two_step_task_legacy,2022.2.4,Win32,59.83008257,31,learning,1,resources/alien1_norm.png,0.667644008,resources/alien2_norm.png,0.322684488,TRUE,TRUE,3,0.848183478,red,x,0.2718,alien1,TRUE,2,0.085742448,46,1,0.667644008,x,0.5687,0,116,116,116,1,0.667644008,0.322684488,0.513032791,0.495022894,FALSE,,,,,,,,,,,,,,,,,,,,,,,,,,,,,,,,,
GOSH_A3,2023-11-09_13h11.15.097,two_step_task_legacy,2022.2.4,Win32,59.83008257,31,learning,0,resources/alien4_norm.png,0.487973293,resources/alien3_norm.png,0.512195794,TRUE,TRUE,2,0.016798232,purple,x,0.1386,alien3,TRUE,2,0.253089585,47,1,0.512195794,m,0.6433,0,117,117,117,1,0.707070434,0.309985121,0.512195794,0.487973293,TRUE,,,,,,,,,,,,,,,,,,,,,,,,,,,,,,,,,
GOSH_A3,2023-11-09_13h11.15.097,two_step_task_legacy,2022.2.4,Win32,59.83008257,31,learning,1,resources/alien3_norm.png,0.532785457,resources/alien4_norm.png,0.496819543,TRUE,TRUE,2,0.953494393,purple,m,0.2614,alien3,TRUE,3,0.92578308,47,0,0.532785457,x,0.8399,0,118,118,118,1,0.689531897,0.361280529,0.532785457,0.496819543,FALSE,,,,,,,,,,,,,,,,,,,,,,,,,,,,,,,,,
GOSH_A3,2023-11-09_13h11.15.097,two_step_task_legacy,2022.2.4,Win32,59.83008257,31,learning,0,resources/alien1_norm.png,0.701247287,resources/alien2_norm.png,0.368092264,TRUE,TRUE,3,0.419650608,red,m,0.2716,alien1,TRUE,3,0.703115965,47,0,0.701247287,x,0.4056,0,119,119,119,1,0.701247287,0.368092264,0.539732256,0.469358927,FALSE,,,,,,,,,,,,,,,,,,,,,,,,,,,,,,,,,
GOSH_A3,2023-11-09_13h11.15.097,two_step_task_legacy,2022.2.4,Win32,59.83008257,31,learning,0,resources/alien2_norm.png,0.347461792,resources/alien1_norm.png,0.726052512,TRUE,TRUE,3,0.087272263,red,m,0.5244,alien2,TRUE,3,0.497900826,47,0,0.347461792,x,0.5167,0,120,120,120,1,0.726052512,0.347461792,0.566186762,0.434884628,TRUE,,,,,,,,,,,,,,,,,,,,,,,,,,,,,,,,,
GOSH_A3,2023-11-09_13h11.15.097,two_step_task_legacy,2022.2.4,Win32,59.83008257,31,learning,1,resources/alien2_norm.png,0.396484292,resources/alien1_norm.png,0.738030072,TRUE,TRUE,3,0.984946201,red,x,0.2482,alien2,TRUE,2,0.348019463,48,1,0.396484292,x,0.5346,0,121,121,121,1,0.738030072,0.396484292,0.596382899,0.439827083,TRUE,,,,,,,,,,,,,,,,,,,,,,,,,,,,,,,,,
GOSH_A3,2023-11-09_13h11.15.097,two_step_task_legacy,2022.2.4,Win32,59.83008257,31,learning,1,resources/alien1_norm.png,0.72810507,resources/alien2_norm.png,0.423288174,TRUE,TRUE,3,0.849045573,red,x,0.4908,alien2,TRUE,2,0.257988305,49,1,0.423288174,m,0.9802,0,122,122,122,1,0.72810507,0.423288174,0.593281654,0.415803237,FALSE,,,,,,,,,,,,,,,,,,,,,,,,,,,,,,,,,
GOSH_A3,2023-11-09_13h11.15.097,two_step_task_legacy,2022.2.4,Win32,59.83008257,31,learning,0,resources/alien1_norm.png,0.685307875,resources/alien2_norm.png,0.428141262,TRUE,TRUE,3,0.18064102,red,m,0.5165,alien2,TRUE,3,0.59826302,49,0,0.428141262,m,0.6045,0,123,123,123,1,0.685307875,0.428141262,0.614271373,0.469262118,FALSE,,,,,,,,,,,,,,,,,,,,,,,,,,,,,,,,,
GOSH_A3,2023-11-09_13h11.15.097,two_step_task_legacy,2022.2.4,Win32,59.83008257,31,learning,0,resources/alien1_norm.png,0.677719855,resources/alien2_norm.png,0.443149426,TRUE,TRUE,3,0.036695688,red,m,0.3207,alien2,TRUE,3,0.979127099,49,0,0.443149426,m,0.9879,0,124,124,124,1,0.677719855,0.443149426,0.595787295,0.457012985,FALSE,,,,,,,,,,,,,,,,,,,,,,,,,,,,,,,,,
GOSH_A3,2023-11-09_13h11.15.097,two_step_task_legacy,2022.2.4,Win32,59.83008257,31,learning,1,resources/alien2_norm.png,0.465350228,resources/alien1_norm.png,0.656710467,TRUE,TRUE,3,0.769636776,red,x,0.0543,alien1,TRUE,3,0.773726818,49,0,0.656710467,m,1.0429,0,125,125,125,1,0.656710467,0.465350228,0.609400518,0.454510665,TRUE,,,,,,,,,,,,,,,,,,,,,,,,,,,,,,,,,
GOSH_A3,2023-11-09_13h11.15.097,two_step_task_legacy,2022.2.4,Win32,59.83008257,31,learning,1,resources/alien2_norm.png,0.513675801,resources/alien1_norm.png,0.658772828,TRUE,TRUE,3,0.729842749,red,x,0.0689,alien1,TRUE,3,0.976683322,49,0,0.658772828,m,0.9503,0,126,126,126,1,0.658772828,0.513675801,0.654267489,0.465484818,TRUE,,,,,,,,,,,,,,,,,,,,,,,,,,,,,,,,,
GOSH_A3,2023-11-09_13h11.15.097,two_step_task_legacy,2022.2.4,Win32,59.83008257,31,learning,0,resources/alien2_norm.png,0.44903852,resources/alien1_norm.png,0.640716477,TRUE,TRUE,3,0.674995175,red,m,0.3661,alien2,TRUE,2,0.329662443,50,1,0.44903852,x,1.2013,0,127,127,127,1,0.640716477,0.44903852,0.649584213,0.482157085,TRUE,,,,,,,,,,,,,,,,,,,,,,,,,,,,,,,,,
GOSH_A3,2023-11-09_13h11.15.097,two_step_task_legacy,2022.2.4,Win32,59.83008257,31,learning,0,resources/alien4_norm.png,0.510855905,resources/alien3_norm.png,0.646962345,TRUE,TRUE,2,0.63317172,purple,x,0.2525,alien3,TRUE,2,0.539322481,51,1,0.646962345,m,1.5083,0,128,128,128,1,0.635324725,0.478184618,0.646962345,0.510855905,TRUE,,,,,,,,,,,,,,,,,,,,,,,,,,,,,,,,,
GOSH_A3,2023-11-09_13h11.15.097,two_step_task_legacy,2022.2.4,Win32,59.83008257,31,learning,0,resources/alien1_norm.png,0.655436374,resources/alien2_norm.png,0.460769008,TRUE,TRUE,3,0.329812423,red,m,0.3,alien2,TRUE,2,0.356249633,52,1,0.460769008,m,1.3924,0,129,129,129,1,0.655436374,0.460769008,0.653055224,0.489978701,FALSE,,,,,,,,,,,,,,,,,,,,,,,,,,,,,,,,,
GOSH_A3,2023-11-09_13h11.15.097,two_step_task_legacy,2022.2.4,Win32,59.83008257,31,learning,0,resources/alien1_norm.png,0.61995362,resources/alien2_norm.png,0.453479399,TRUE,TRUE,3,0.603856037,red,m,0.2329,alien1,TRUE,3,0.757100105,52,0,0.61995362,x,0.8172,0,130,130,130,1,0.61995362,0.453479399,0.613362747,0.485033424,FALSE,,,,,,,,,,,,,,,,,,,,,,,,,,,,,,,,,
GOSH_A3,2023-11-09_13h11.15.097,two_step_task_legacy,2022.2.4,Win32,59.83008257,31,learning,0,resources/alien2_norm.png,0.441274551,resources/alien1_norm.png,0.655513018,TRUE,TRUE,3,0.577653382,red,m,0.384,alien2,TRUE,2,0.183117925,53,1,0.441274551,x,0.4916,0,131,131,131,1,0.655513018,0.441274551,0.618264084,0.489467803,TRUE,,,,,,,,,,,,,,,,,,,,,,,,,,,,,,,,,
GOSH_A3,2023-11-09_13h11.15.097,two_step_task_legacy,2022.2.4,Win32,59.83008257,31,learning,0,resources/alien4_norm.png,0.508589034,resources/alien3_norm.png,0.653320808,TRUE,TRUE,2,0.558156991,purple,x,0.3707,alien3,TRUE,2,0.584532047,54,1,0.653320808,m,1.1536,0,132,132,132,1,0.660323481,0.41905929,0.653320808,0.508589034,TRUE,,,,,,,,,,,,,,,,,,,,,,,,,,,,,,,,,
GOSH_A3,2023-11-09_13h11.15.097,two_step_task_legacy,2022.2.4,Win32,59.83008257,31,learning,0,resources/alien1_norm.png,0.686863024,resources/alien2_norm.png,0.36029786,TRUE,TRUE,3,0.021494522,red,m,0.2045,alien2,TRUE,3,0.395029421,54,0,0.36029786,m,0.7715,0,133,133,133,1,0.686863024,0.36029786,0.634618889,0.523979081,FALSE,,,,,,,,,,,,,,,,,,,,,,,,,,,,,,,,,
GOSH_A3,2023-11-09_13h11.15.097,two_step_task_legacy,2022.2.4,Win32,59.83008257,31,learning,0,resources/alien4_norm.png,0.561268839,resources/alien3_norm.png,0.653176435,TRUE,TRUE,2,0.154084001,purple,x,0.1942,alien3,TRUE,2,0.320026884,55,1,0.653176435,m,0.6215,0,134,134,134,1,0.648257727,0.358149581,0.653176435,0.561268839,TRUE,,,,,,,,,,,,,,,,,,,,,,,,,,,,,,,,,
GOSH_A3,2023-11-09_13h11.15.097,two_step_task_legacy,2022.2.4,Win32,59.83008257,31,learning,1,resources/alien3_norm.png,0.625661179,resources/alien4_norm.png,0.547455663,TRUE,TRUE,2,0.840192393,purple,m,0.4419,alien3,TRUE,3,0.897512721,55,0,0.625661179,x,0.5872,0,135,135,135,1,0.675484334,0.357335645,0.625661179,0.547455663,FALSE,,,,,,,,,,,,,,,,,,,,,,,,,,,,,,,,,
GOSH_A3,2023-11-09_13h11.15.097,two_step_task_legacy,2022.2.4,Win32,59.83008257,31,learning,1,resources/alien3_norm.png,0.597727276,resources/alien4_norm.png,0.553095273,TRUE,TRUE,2,0.878390172,purple,m,0.2059,alien3,TRUE,2,0.405617045,56,1,0.597727276,x,0.4628,0,136,136,136,1,0.694725982,0.348051174,0.597727276,0.553095273,FALSE,,,,,,,,,,,,,,,,,,,,,,,,,,,,,,,,,
GOSH_A3,2023-11-09_13h11.15.097,two_step_task_legacy,2022.2.4,Win32,59.83008257,31,learning,0,resources/alien2_norm.png,0.375888693,resources/alien1_norm.png,0.725078908,TRUE,TRUE,3,0.017605008,red,m,0.3794,alien2,TRUE,2,0.069350415,57,1,0.375888693,x,0.8778,0,137,137,137,1,0.725078908,0.375888693,0.559411518,0.553266507,TRUE,,,,,,,,,,,,,,,,,,,,,,,,,,,,,,,,,
GOSH_A3,2023-11-09_13h11.15.097,two_step_task_legacy,2022.2.4,Win32,59.83008257,31,learning,1,resources/alien4_norm.png,0.574857827,resources/alien3_norm.png,0.557477541,TRUE,TRUE,2,0.974408737,purple,m,0.2332,alien3,TRUE,3,0.588141738,57,0,0.557477541,m,0.4667,0,138,138,138,1,0.697747266,0.34815686,0.557477541,0.574857827,TRUE,,,,,,,,,,,,,,,,,,,,,,,,,,,,,,,,,
GOSH_A3,2023-11-09_13h11.15.097,two_step_task_legacy,2022.2.4,Win32,59.83008257,31,learning,1,resources/alien3_norm.png,0.541784858,resources/alien4_norm.png,0.578979803,TRUE,TRUE,2,0.865129554,purple,m,0.0665,alien3,TRUE,2,0.23280447,58,1,0.541784858,x,0.4655,0,139,139,139,1,0.719369264,0.348908143,0.541784858,0.578979803,FALSE,,,,,,,,,,,,,,,,,,,,,,,,,,,,,,,,,
GOSH_A3,2023-11-09_13h11.15.097,two_step_task_legacy,2022.2.4,Win32,59.83008257,31,learning,0,resources/alien2_norm.png,0.354944319,resources/alien1_norm.png,0.721925325,TRUE,TRUE,3,0.252254802,red,m,0.244,alien2,TRUE,3,0.62271856,58,0,0.354944319,x,1.4228,0,140,140,140,1,0.721925325,0.354944319,0.533963393,0.570999634,TRUE,,,,,,,,,,,,,,,,,,,,,,,,,,,,,,,,,
GOSH_A3,2023-11-09_13h11.15.097,two_step_task_legacy,2022.2.4,Win32,59.83008257,31,learning,0,resources/alien2_norm.png,0.373817527,resources/alien1_norm.png,0.713795562,TRUE,TRUE,3,0.051942685,red,m,0.2494,alien2,TRUE,3,0.807429238,58,0,0.373817527,x,1.109,0,141,141,141,1,0.713795562,0.373817527,0.576751304,0.536742171,TRUE,,,,,,,,,,,,,,,,,,,,,,,,,,,,,,,,,
GOSH_A3,2023-11-09_13h11.15.097,two_step_task_legacy,2022.2.4,Win32,59.83008257,31,learning,1,resources/alien4_norm.png,0.610349275,resources/alien3_norm.png,0.540791797,TRUE,TRUE,2,0.873315705,purple,m,0.3497,alien3,TRUE,3,0.589287702,58,0,0.540791797,m,0.8257,0,142,142,142,1,0.740517323,0.394054994,0.540791797,0.610349275,TRUE,,,,,,,,,,,,,,,,,,,,,,,,,,,,,,,,,
GOSH_A3,2023-11-09_13h11.15.097,two_step_task_legacy,2022.2.4,Win32,59.83008257,31,learning,0,resources/alien3_norm.png,0.569468549,resources/alien4_norm.png,0.588139384,TRUE,TRUE,2,0.445794252,purple,x,0.1996,alien4,TRUE,3,0.787964604,58,0,0.588139384,m,1.5957,0,143,143,143,1,0.733170537,0.413737064,0.569468549,0.588139384,FALSE,,,,,,,,,,,,,,,,,,,,,,,,,,,,,,,,,
GOSH_A3,2023-11-09_13h11.15.097,two_step_task_legacy,2022.2.4,Win32,59.83008257,31,learning,0,resources/alien4_norm.png,0.569967256,resources/alien3_norm.png,0.577054572,TRUE,TRUE,2,0.427611689,purple,x,0.1001,alien3,TRUE,3,0.87246531,58,0,0.577054572,m,0.8771,0,144,144,144,1,0.720948192,0.387869739,0.577054572,0.569967256,TRUE,,,,,,,,,,,,,,,,,,,,,,,,,,,,,,,,,
GOSH_A3,2023-11-09_13h11.15.097,two_step_task_legacy,2022.2.4,Win32,59.83008257,31,learning,0,resources/alien2_norm.png,0.418056912,resources/alien1_norm.png,0.704160764,TRUE,TRUE,3,0.381180981,red,m,0.332,alien1,TRUE,2,0.056565486,59,1,0.704160764,m,1.0202,0,145,145,145,1,0.704160764,0.418056912,0.53629869,0.552036289,TRUE,,,,,,,,,,,,,,,,,,,,,,,,,,,,,,,,,
GOSH_A3,2023-11-09_13h11.15.097,two_step_task_legacy,2022.2.4,Win32,59.83008257,31,learning,1,resources/alien4_norm.png,0.516810427,resources/alien3_norm.png,0.50086888,TRUE,TRUE,2,0.85209998,purple,m,0.3728,alien4,TRUE,3,0.790951743,59,0,0.516810427,x,0.716,0,146,146,146,1,0.707264373,0.380814472,0.50086888,0.516810427,TRUE,,,,,,,,,,,,,,,,,,,,,,,,,,,,,,,,,
GOSH_A3,2023-11-09_13h11.15.097,two_step_task_legacy,2022.2.4,Win32,59.83008257,31,learning,0,resources/alien2_norm.png,0.382390844,resources/alien1_norm.png,0.689129267,TRUE,TRUE,3,0.6714873,red,m,0.3072,alien2,TRUE,2,0.153490576,60,1,0.382390844,x,0.8147,0,147,147,147,1,0.689129267,0.382390844,0.505993031,0.498941854,TRUE,,,,,,,,,,,,,,,,,,,,,,,,,,,,,,,,,
GOSH_A3,2023-11-09_13h11.15.097,two_step_task_legacy,2022.2.4,Win32,59.83008257,31,learning,1,resources/alien4_norm.png,0.532689028,resources/alien3_norm.png,0.430119945,TRUE,TRUE,2,0.902528575,purple,m,0.4392,alien3,TRUE,2,0.084205489,61,1,0.430119945,m,0.6749,0,148,148,148,1,0.721410809,0.313154918,0.430119945,0.532689028,TRUE,,,,,,,,,,,,,,,,,,,,,,,,,,,,,,,,,
GOSH_A3,2023-11-09_13h11.15.097,two_step_task_legacy,2022.2.4,Win32,59.83008257,31,learning,0,resources/alien2_norm.png,0.345847125,resources/alien1_norm.png,0.713441678,TRUE,TRUE,3,0.435357406,red,m,0.0703,alien1,TRUE,2,0.059299405,62,1,0.713441678,m,0.5323,0,149,149,149,1,0.713441678,0.345847125,0.421554333,0.543528828,TRUE,,,,,,,,,,,,,,,,,,,,,,,,,,,,,,,,,
GOSH_A3,2023-11-09_13h11.15.097,two_step_task_legacy,2022.2.4,Win32,59.83008257,31,learning,1,resources/alien4_norm.png,0.6,resources/alien3_norm.png,0.4,TRUE,TRUE,2,0.839107837,purple,m,0.3587,alien3,TRUE,3,0.589512504,62,0,0.4,m,0.3866,0,150,150,150,1,0.7,0.3,0.4,0.6,TRUE,,,,,,,,,,,,,,,,,,,,,,,,,,,,,,,,,
GOSH_A3,2023-11-09_13h11.15.097,two_step_task_legacy,2022.2.4,Win32,59.83008257,31,learning,0,resources/alien1_norm.png,0.7,resources/alien2_norm.png,0.3,TRUE,TRUE,3,0.151860523,red,m,0.0284,alien1,TRUE,2,0.350147118,63,1,0.7,x,0.9328,0,151,151,151,1,0.7,0.3,0.4,0.6,FALSE,,,,,,,,,,,,,,,,,,,,,,,,,,,,,,,,,
GOSH_A3,2023-11-09_13h11.15.097,two_step_task_legacy,2022.2.4,Win32,59.83008257,31,learning,0,resources/alien3_norm.png,0.4,resources/alien4_norm.png,0.6,TRUE,TRUE,2,0.591436137,purple,x,0.2673,alien3,TRUE,3,0.762308842,63,0,0.4,x,0.5545,0,152,152,152,1,0.7,0.3,0.4,0.6,FALSE,,,,,,,,,,,,,,,,,,,,,,,,,,,,,,,,,
GOSH_A3,2023-11-09_13h11.15.097,two_step_task_legacy,2022.2.4,Win32,59.83008257,31,learning,1,resources/alien4_norm.png,0.6,resources/alien3_norm.png,0.4,TRUE,TRUE,2,0.930696455,purple,m,0.1645,alien4,TRUE,2,0.068045644,64,1,0.6,x,0.4664,0,153,153,153,1,0.7,0.3,0.4,0.6,TRUE,,,,,,,,,,,,,,,,,,,,,,,,,,,,,,,,,
GOSH_A3,2023-11-09_13h11.15.097,two_step_task_legacy,2022.2.4,Win32,59.83008257,31,learning,1,resources/alien4_norm.png,0.6,resources/alien3_norm.png,0.4,TRUE,TRUE,2,0.715870772,purple,m,0.3095,alien4,TRUE,2,0.293361417,65,1,0.6,x,0.684,0,154,154,154,1,0.7,0.3,0.4,0.6,TRUE,,,,,,,,,,,,,,,,,,,,,,,,,,,,,,,,,
GOSH_A3,2023-11-09_13h11.15.097,two_step_task_legacy,2022.2.4,Win32,59.83008257,31,learning,0,resources/alien4_norm.png,0.6,resources/alien3_norm.png,0.4,TRUE,TRUE,2,0.368547992,purple,x,0.2153,alien4,TRUE,3,0.746944626,65,0,0.6,x,0.8179,0,155,155,155,1,0.7,0.3,0.4,0.6,TRUE,,,,,,,,,,,,,,,,,,,,,,,,,,,,,,,,,
GOSH_A3,2023-11-09_13h11.15.097,two_step_task_legacy,2022.2.4,Win32,59.83008257,31,learning,0,resources/alien4_norm.png,0.6,resources/alien3_norm.png,0.4,TRUE,TRUE,2,0.230681998,purple,x,0.1068,alien4,TRUE,2,0.236519065,66,1,0.6,x,0.3119,0,156,156,156,1,0.7,0.3,0.4,0.6,TRUE,,,,,,,,,,,,,,,,,,,,,,,,,,,,,,,,,
GOSH_A3,2023-11-09_13h11.15.097,two_step_task_legacy,2022.2.4,Win32,59.83008257,31,learning,0,resources/alien4_norm.png,0.6,resources/alien3_norm.png,0.4,TRUE,TRUE,2,0.672209939,purple,x,0.2286,alien4,TRUE,2,0.317888708,67,1,0.6,x,0.4338,0,157,157,157,1,0.7,0.3,0.4,0.6,TRUE,,,,,,,,,,,,,,,,,,,,,,,,,,,,,,,,,
GOSH_A3,2023-11-09_13h11.15.097,two_step_task_legacy,2022.2.4,Win32,59.83008257,31,learning,0,resources/alien4_norm.png,0.6,resources/alien3_norm.png,0.4,TRUE,TRUE,2,0.17654834,purple,x,0.1463,alien4,TRUE,2,0.098635005,68,1,0.6,x,0.3955,0,158,158,158,1,0.7,0.3,0.4,0.6,TRUE,,,,,,,,,,,,,,,,,,,,,,,,,,,,,,,,,
GOSH_A3,2023-11-09_13h11.15.097,two_step_task_legacy,2022.2.4,Win32,59.83008257,31,learning,1,resources/alien1_norm.png,0.7,resources/alien2_norm.png,0.3,TRUE,TRUE,3,0.883102278,red,x,0.2498,alien1,TRUE,2,0.646457239,69,1,0.7,x,1.0395,0,159,159,159,1,0.7,0.3,0.4,0.6,FALSE,,,,,,,,,,,,,,,,,,,,,,,,,,,,,,,,,
GOSH_A3,2023-11-09_13h11.15.097,two_step_task_legacy,2022.2.4,Win32,59.83008257,31,learning,0,resources/alien3_norm.png,0.4,resources/alien4_norm.png,0.6,TRUE,TRUE,2,0.143971966,purple,x,0.1998,alien4,TRUE,3,0.762642571,69,0,0.6,m,0.6546,0,160,160,160,1,0.7,0.3,0.4,0.6,FALSE,,,,,,,,,,,,,,,,,,,,,,,,,,,,,,,,,
GOSH_A3,2023-11-09_13h11.15.097,two_step_task_legacy,2022.2.4,Win32,59.83008257,31,learning,0,resources/alien4_norm.png,0.6,resources/alien3_norm.png,0.4,TRUE,TRUE,2,0.428542818,purple,x,0.3258,alien4,TRUE,2,0.117146695,70,1,0.6,x,0.7282,0,161,161,161,1,0.7,0.3,0.4,0.6,TRUE,,,,,,,,,,,,,,,,,,,,,,,,,,,,,,,,,
GOSH_A3,2023-11-09_13h11.15.097,two_step_task_legacy,2022.2.4,Win32,59.83008257,31,learning,0,resources/alien3_norm.png,0.4,resources/alien4_norm.png,0.6,TRUE,TRUE,2,0.542020199,purple,x,0.2007,alien4,TRUE,2,0.423951028,71,1,0.6,m,0.5555,0,162,162,162,1,0.7,0.3,0.4,0.6,FALSE,,,,,,,,,,,,,,,,,,,,,,,,,,,,,,,,,
GOSH_A3,2023-11-09_13h11.15.097,two_step_task_legacy,2022.2.4,Win32,59.83008257,31,learning,0,resources/alien4_norm.png,0.6,resources/alien3_norm.png,0.4,TRUE,TRUE,2,0.59243589,purple,x,0.3378,alien4,TRUE,2,0.092686644,72,1,0.6,x,1.265,0,163,163,163,1,0.7,0.3,0.4,0.6,TRUE,,,,,,,,,,,,,,,,,,,,,,,,,,,,,,,,,
GOSH_A3,2023-11-09_13h11.15.097,two_step_task_legacy,2022.2.4,Win32,59.83008257,31,learning,0,resources/alien4_norm.png,0.6,resources/alien3_norm.png,0.4,TRUE,TRUE,2,0.407394398,purple,x,0.3533,alien4,TRUE,3,0.759661048,72,0,0.6,x,0.3873,0,164,164,164,1,0.7,0.3,0.4,0.6,TRUE,,,,,,,,,,,,,,,,,,,,,,,,,,,,,,,,,
GOSH_A3,2023-11-09_13h11.15.097,two_step_task_legacy,2022.2.4,Win32,59.83008257,31,learning,0,resources/alien3_norm.png,0.4,resources/alien4_norm.png,0.6,TRUE,TRUE,2,0.346415633,purple,x,0.2092,alien4,TRUE,2,0.450155486,73,1,0.6,m,0.4958,0,165,165,165,1,0.7,0.3,0.4,0.6,FALSE,,,,,,,,,,,,,,,,,,,,,,,,,,,,,,,,,
GOSH_A3,2023-11-09_13h11.15.097,two_step_task_legacy,2022.2.4,Win32,59.83008257,31,learning,1,resources/alien1_norm.png,0.7,resources/alien2_norm.png,0.3,TRUE,TRUE,3,0.706170514,red,x,0.1656,alien1,TRUE,3,0.987518338,73,0,0.7,x,0.8035,0,166,166,166,1,0.7,0.3,0.4,0.6,FALSE,,,,,,,,,,,,,,,,,,,,,,,,,,,,,,,,,
GOSH_A3,2023-11-09_13h11.15.097,two_step_task_legacy,2022.2.4,Win32,59.83008257,31,learning,0,resources/alien1_norm.png,0.7,resources/alien2_norm.png,0.3,TRUE,TRUE,3,0.345930584,red,m,0.1336,alien1,TRUE,2,0.224051668,74,1,0.7,x,0.4424,0,167,167,167,1,0.7,0.3,0.4,0.6,FALSE,,,,,,,,,,,,,,,,,,,,,,,,,,,,,,,,,
GOSH_A3,2023-11-09_13h11.15.097,two_step_task_legacy,2022.2.4,Win32,59.83008257,31,learning,0,resources/alien2_norm.png,0.3,resources/alien1_norm.png,0.7,TRUE,TRUE,3,0.368879825,red,m,0.3046,alien1,TRUE,3,0.909878559,74,0,0.7,m,0.7763,0,168,168,168,1,0.7,0.3,0.4,0.6,TRUE,,,,,,,,,,,,,,,,,,,,,,,,,,,,,,,,,
GOSH_A3,2023-11-09_13h11.15.097,two_step_task_legacy,2022.2.4,Win32,59.83008257,31,learning,0,resources/alien2_norm.png,0.3,resources/alien1_norm.png,0.7,TRUE,TRUE,3,0.160742238,red,m,0.2708,alien1,TRUE,2,0.275627676,75,1,0.7,m,0.4249,0,169,169,169,1,0.7,0.3,0.4,0.6,TRUE,,,,,,,,,,,,,,,,,,,,,,,,,,,,,,,,,
GOSH_A3,2023-11-09_13h11.15.097,two_step_task_legacy,2022.2.4,Win32,59.83008257,31,learning,1,resources/alien4_norm.png,0.6,resources/alien3_norm.png,0.4,TRUE,TRUE,2,0.899800246,purple,m,0.2927,alien4,TRUE,2,0.077884281,76,1,0.6,x,0.5275,0,170,170,170,1,0.7,0.3,0.4,0.6,TRUE,,,,,,,,,,,,,,,,,,,,,,,,,,,,,,,,,
GOSH_A3,2023-11-09_13h11.15.097,two_step_task_legacy,2022.2.4,Win32,59.83008257,31,learning,0,resources/alien2_norm.png,0.3,resources/alien1_norm.png,0.7,TRUE,TRUE,3,0.424462986,red,m,0.1007,alien1,TRUE,2,0.092383314,77,1,0.7,m,0.7834,0,171,171,171,1,0.7,0.3,0.4,0.6,TRUE,,,,,,,,,,,,,,,,,,,,,,,,,,,,,,,,,
GOSH_A3,2023-11-09_13h11.15.097,two_step_task_legacy,2022.2.4,Win32,59.83008257,31,learning,1,resources/alien3_norm.png,0.4,resources/alien4_norm.png,0.6,TRUE,TRUE,2,0.790130221,purple,m,0.2433,alien4,TRUE,3,0.920316245,77,0,0.6,m,0.6197,0,172,172,172,1,0.7,0.3,0.4,0.6,FALSE,,,,,,,,,,,,,,,,,,,,,,,,,,,,,,,,,
GOSH_A3,2023-11-09_13h11.15.097,two_step_task_legacy,2022.2.4,Win32,59.83008257,31,learning,0,resources/alien4_norm.png,0.6,resources/alien3_norm.png,0.4,TRUE,TRUE,2,0.086943414,purple,x,0.2606,alien4,TRUE,2,0.335509379,78,1,0.6,x,0.4506,0,173,173,173,1,0.7,0.3,0.4,0.6,TRUE,,,,,,,,,,,,,,,,,,,,,,,,,,,,,,,,,
GOSH_A3,2023-11-09_13h11.15.097,two_step_task_legacy,2022.2.4,Win32,59.83008257,31,learning,0,resources/alien4_norm.png,0.6,resources/alien3_norm.png,0.4,TRUE,TRUE,2,0.287805204,purple,x,0.4364,alien4,TRUE,2,0.536004494,79,1,0.6,x,0.4678,0,174,174,174,1,0.7,0.3,0.4,0.6,TRUE,,,,,,,,,,,,,,,,,,,,,,,,,,,,,,,,,
GOSH_A3,2023-11-09_13h11.15.097,two_step_task_legacy,2022.2.4,Win32,59.83008257,31,learning,0,resources/alien4_norm.png,0.6,resources/alien3_norm.png,0.4,TRUE,TRUE,2,0.447168314,purple,x,0.2658,alien4,TRUE,2,0.322280605,80,1,0.6,x,0.4081,0,175,175,175,1,0.7,0.3,0.4,0.6,TRUE,,,,,,,,,,,,,,,,,,,,,,,,,,,,,,,,,
GOSH_A3,2023-11-09_13h11.15.097,two_step_task_legacy,2022.2.4,Win32,59.83008257,31,learning,0,resources/alien4_norm.png,0.6,resources/alien3_norm.png,0.4,TRUE,TRUE,2,0.231735242,purple,x,0.1905,alien4,TRUE,3,0.69936691,80,0,0.6,x,0.4455,0,176,176,176,1,0.7,0.3,0.4,0.6,TRUE,,,,,,,,,,,,,,,,,,,,,,,,,,,,,,,,,
GOSH_A3,2023-11-09_13h11.15.097,two_step_task_legacy,2022.2.4,Win32,59.83008257,31,learning,0,resources/alien4_norm.png,0.6,resources/alien3_norm.png,0.4,TRUE,TRUE,2,0.337278946,purple,x,0.3366,alien4,TRUE,2,0.273469763,81,1,0.6,x,0.3009,0,177,177,177,1,0.7,0.3,0.4,0.6,TRUE,,,,,,,,,,,,,,,,,,,,,,,,,,,,,,,,,
GOSH_A3,2023-11-09_13h11.15.097,two_step_task_legacy,2022.2.4,Win32,59.83008257,31,learning,0,resources/alien3_norm.png,0.4,resources/alien4_norm.png,0.6,TRUE,TRUE,2,0.477239897,purple,x,0.3112,alien4,TRUE,2,0.198076613,82,1,0.6,m,1.0019,0,178,178,178,1,0.7,0.3,0.4,0.6,FALSE,,,,,,,,,,,,,,,,,,,,,,,,,,,,,,,,,
GOSH_A3,2023-11-09_13h11.15.097,two_step_task_legacy,2022.2.4,Win32,59.83008257,31,learning,0,resources/alien2_norm.png,0.3,resources/alien1_norm.png,0.7,TRUE,TRUE,3,0.621665578,red,m,0.269,alien2,TRUE,3,0.47651575,82,0,0.3,x,1.0178,0,179,179,179,1,0.7,0.3,0.4,0.6,TRUE,,,,,,,,,,,,,,,,,,,,,,,,,,,,,,,,,
GOSH_A3,2023-11-09_13h11.15.097,two_step_task_legacy,2022.2.4,Win32,59.83008257,31,learning,1,resources/alien1_norm.png,0.7,resources/alien2_norm.png,0.3,TRUE,TRUE,3,0.916757351,red,x,0.1497,alien1,TRUE,2,0.123290843,83,1,0.7,x,0.9569,0,180,180,180,1,0.7,0.3,0.4,0.6,FALSE,,,,,,,,,,,,,,,,,,,,,,,,,,,,,,,,,
GOSH_A3,2023-11-09_13h11.15.097,two_step_task_legacy,2022.2.4,Win32,59.83008257,31,learning,1,resources/alien4_norm.png,0.6,resources/alien3_norm.png,0.4,TRUE,TRUE,2,0.887492905,purple,m,0.3564,alien4,TRUE,3,0.68135623,83,0,0.6,x,0.6757,0,181,181,181,1,0.7,0.3,0.4,0.6,TRUE,,,,,,,,,,,,,,,,,,,,,,,,,,,,,,,,,
GOSH_A3,2023-11-09_13h11.15.097,two_step_task_legacy,2022.2.4,Win32,59.83008257,31,learning,0,resources/alien2_norm.png,0.3,resources/alien1_norm.png,0.7,TRUE,TRUE,3,0.094614665,red,m,0.2114,alien1,TRUE,2,0.325313556,84,1,0.7,m,1.5011,0,182,182,182,1,0.7,0.3,0.4,0.6,TRUE,,,,,,,,,,,,,,,,,,,,,,,,,,,,,,,,,
GOSH_A3,2023-11-09_13h11.15.097,two_step_task_legacy,2022.2.4,Win32,59.83008257,31,learning,0,resources/alien3_norm.png,0.4,resources/alien4_norm.png,0.6,TRUE,TRUE,2,0.50460503,purple,x,0.017,alien4,TRUE,2,0.425916642,85,1,0.6,m,0.5667,0,183,183,183,1,0.7,0.3,0.4,0.6,FALSE,,,,,,,,,,,,,,,,,,,,,,,,,,,,,,,,,
GOSH_A3,2023-11-09_13h11.15.097,two_step_task_legacy,2022.2.4,Win32,59.83008257,31,learning,0,resources/alien1_norm.png,0.7,resources/alien2_norm.png,0.3,TRUE,TRUE,3,0.677333385,red,m,0.2432,alien1,TRUE,2,0.630219505,86,1,0.7,x,0.7895,0,184,184,184,1,0.7,0.3,0.4,0.6,FALSE,,,,,,,,,,,,,,,,,,,,,,,,,,,,,,,,,
GOSH_A3,2023-11-09_13h11.15.097,two_step_task_legacy,2022.2.4,Win32,59.83008257,31,learning,1,resources/alien3_norm.png,0.4,resources/alien4_norm.png,0.6,TRUE,TRUE,2,0.716670839,purple,m,0.362,alien4,TRUE,3,0.66284129,86,0,0.6,m,0.8393,0,185,185,185,1,0.7,0.3,0.4,0.6,FALSE,,,,,,,,,,,,,,,,,,,,,,,,,,,,,,,,,
GOSH_A3,2023-11-09_13h11.15.097,two_step_task_legacy,2022.2.4,Win32,59.83008257,31,learning,0,resources/alien2_norm.png,0.3,resources/alien1_norm.png,0.7,TRUE,TRUE,3,0.304506937,red,m,0.4041,alien1,TRUE,2,0.311240038,87,1,0.7,m,0.7325,0,186,186,186,1,0.7,0.3,0.4,0.6,TRUE,,,,,,,,,,,,,,,,,,,,,,,,,,,,,,,,,
GOSH_A3,2023-11-09_13h11.15.097,two_step_task_legacy,2022.2.4,Win32,59.83008257,31,learning,1,resources/alien1_norm.png,0.7,resources/alien2_norm.png,0.3,TRUE,TRUE,3,0.762557358,red,x,0.4183,alien1,TRUE,2,0.487058394,88,1,0.7,x,0.845,0,187,187,187,1,0.7,0.3,0.4,0.6,FALSE,,,,,,,,,,,,,,,,,,,,,,,,,,,,,,,,,
GOSH_A3,2023-11-09_13h11.15.097,two_step_task_legacy,2022.2.4,Win32,59.83008257,31,learning,1,resources/alien4_norm.png,0.6,resources/alien3_norm.png,0.4,TRUE,TRUE,2,0.99866584,purple,m,0.5608,alien4,TRUE,2,0.332958917,89,1,0.6,x,0.553,0,188,188,188,1,0.7,0.3,0.4,0.6,TRUE,,,,,,,,,,,,,,,,,,,,,,,,,,,,,,,,,
GOSH_A3,2023-11-09_13h11.15.097,two_step_task_legacy,2022.2.4,Win32,59.83008257,31,learning,0,resources/alien3_norm.png,0.4,resources/alien4_norm.png,0.6,TRUE,TRUE,2,0.386206363,purple,x,0.2313,alien4,TRUE,2,0.549402682,90,1,0.6,m,0.9615,0,189,189,189,1,0.7,0.3,0.4,0.6,FALSE,,,,,,,,,,,,,,,,,,,,,,,,,,,,,,,,,
GOSH_A3,2023-11-09_13h11.15.097,two_step_task_legacy,2022.2.4,Win32,59.83008257,31,learning,1,resources/alien4_norm.png,0.6,resources/alien3_norm.png,0.4,TRUE,TRUE,2,0.845936324,purple,m,0.3897,alien4,TRUE,3,0.81819612,90,0,0.6,x,0.8833,0,190,190,190,1,0.7,0.3,0.4,0.6,TRUE,,,,,,,,,,,,,,,,,,,,,,,,,,,,,,,,,
GOSH_A3,2023-11-09_13h11.15.097,two_step_task_legacy,2022.2.4,Win32,59.83008257,31,learning,0,resources/alien2_norm.png,0.3,resources/alien1_norm.png,0.7,TRUE,TRUE,3,0.113116751,red,m,0.2047,alien1,TRUE,2,0.58237819,91,1,0.7,m,0.6396,0,191,191,191,1,0.7,0.3,0.4,0.6,TRUE,,,,,,,,,,,,,,,,,,,,,,,,,,,,,,,,,
GOSH_A3,2023-11-09_13h11.15.097,two_step_task_legacy,2022.2.4,Win32,59.83008257,31,learning,1,resources/alien1_norm.png,0.7,resources/alien2_norm.png,0.3,TRUE,TRUE,3,0.994996246,red,x,0.283,alien1,TRUE,2,0.291126542,92,1,0.7,x,0.8903,0,192,192,192,1,0.7,0.3,0.4,0.6,FALSE,,,,,,,,,,,,,,,,,,,,,,,,,,,,,,,,,
GOSH_A3,2023-11-09_13h11.15.097,two_step_task_legacy,2022.2.4,Win32,59.83008257,31,learning,0,resources/alien2_norm.png,0.3,resources/alien1_norm.png,0.7,TRUE,TRUE,3,0.393623811,red,m,0.3236,alien1,TRUE,3,0.709110929,92,0,0.7,m,0.735,0,193,193,193,1,0.7,0.3,0.4,0.6,TRUE,,,,,,,,,,,,,,,,,,,,,,,,,,,,,,,,,
GOSH_A3,2023-11-09_13h11.15.097,two_step_task_legacy,2022.2.4,Win32,59.83008257,31,learning,1,resources/alien2_norm.png,0.3,resources/alien1_norm.png,0.7,TRUE,TRUE,3,0.962278146,red,x,0.4064,alien1,TRUE,2,0.128681229,93,1,0.7,m,0.6459,0,194,194,194,1,0.7,0.3,0.4,0.6,TRUE,,,,,,,,,,,,,,,,,,,,,,,,,,,,,,,,,
GOSH_A3,2023-11-09_13h11.15.097,two_step_task_legacy,2022.2.4,Win32,59.83008257,31,learning,0,resources/alien1_norm.png,0.7,resources/alien2_norm.png,0.3,TRUE,TRUE,3,0.252573322,red,m,0.2184,alien1,TRUE,2,0.25257589,94,1,0.7,x,0.5174,0,195,195,195,1,0.7,0.3,0.4,0.6,FALSE,,,,,,,,,,,,,,,,,,,,,,,,,,,,,,,,,
GOSH_A3,2023-11-09_13h11.15.097,two_step_task_legacy,2022.2.4,Win32,59.83008257,31,learning,0,resources/alien3_norm.png,0.4,resources/alien4_norm.png,0.6,TRUE,TRUE,2,0.699282133,purple,x,0.3422,alien4,TRUE,2,0.502470666,95,1,0.6,m,1.3089,0,196,196,196,1,0.7,0.3,0.4,0.6,FALSE,,,,,,,,,,,,,,,,,,,,,,,,,,,,,,,,,
GOSH_A3,2023-11-09_13h11.15.097,two_step_task_legacy,2022.2.4,Win32,59.83008257,31,learning,1,resources/alien3_norm.png,0.4,resources/alien4_norm.png,0.6,TRUE,TRUE,2,0.933132394,purple,m,0.2028,alien4,TRUE,2,0.419368985,96,1,0.6,m,0.5707,0,197,197,197,1,0.7,0.3,0.4,0.6,FALSE,,,,,,,,,,,,,,,,,,,,,,,,,,,,,,,,,
GOSH_A3,2023-11-09_13h11.15.097,two_step_task_legacy,2022.2.4,Win32,59.83008257,31,learning,0,resources/alien4_norm.png,0.6,resources/alien3_norm.png,0.4,TRUE,TRUE,2,0.333556034,purple,x,0.2414,alien4,TRUE,3,0.626404836,96,0,0.6,x,0.6,0,198,198,198,1,0.7,0.3,0.4,0.6,TRUE,,,,,,,,,,,,,,,,,,,,,,,,,,,,,,,,,
GOSH_A3,2023-11-09_13h11.15.097,two_step_task_legacy,2022.2.4,Win32,59.83008257,31,learning,0,resources/alien2_norm.png,0.3,resources/alien1_norm.png,0.7,TRUE,TRUE,3,0.008766289,red,m,0.0505,alien1,TRUE,2,0.019093114,97,1,0.7,m,0.3897,0,199,199,199,1,0.7,0.3,0.4,0.6,TRUE,,,,,,,,,,,,,,,,,,,,,,,,,,,,,,,,,
GOSH_A3,2023-11-09_13h11.15.097,two_step_task_legacy,2022.2.4,Win32,59.83008257,31,learning,0,resources/alien4_norm.png,0.6,resources/alien3_norm.png,0.4,TRUE,TRUE,2,0.354051514,purple,x,0.2675,alien4,TRUE,2,0.329024677,98,1,0.6,x,0.5173,0,200,200,200,1,0.7,0.3,0.4,0.6,TRUE,,,,,,,,,,,,,,,,,,,,,,,,,,,,,,,,,
GOSH_A3,2023-11-09_13h11.15.097,two_step_task_legacy,2022.2.4,Win32,59.83008257,31,learning,1,resources/alien4_norm.png,0.6,resources/alien3_norm.png,0.4,TRUE,TRUE,2,0.979722494,purple,m,0.2174,alien4,TRUE,3,0.933720381,98,0,0.6,x,0.5041,0,201,201,201,1,0.7,0.3,0.4,0.6,TRUE,,,,,,,,,,,,,,,,,,,,,,,,,,,,,,,,,
GOSH_A3,2023-11-09_13h11.15.097,two_step_task_legacy,2022.2.4,Win32,59.83008257,31,learning,0,resources/alien3_norm.png,0.4,resources/alien4_norm.png,0.6,TRUE,TRUE,2,0.440257477,purple,x,0.2727,alien4,TRUE,3,0.979814338,98,0,0.6,m,0.7339,0,202,202,202,1,0.7,0.3,0.4,0.6,FALSE,,,,,,,,,,,,,,,,,,,,,,,,,,,,,,,,,
GOSH_A3,2023-11-09_13h11.15.097,two_step_task_legacy,2022.2.4,Win32,59.83008257,31,learning,0,resources/alien1_norm.png,0.7,resources/alien2_norm.png,0.3,TRUE,TRUE,3,0.074424815,red,m,0.1495,alien1,TRUE,3,0.858102464,98,0,0.7,x,0.3636,0,203,203,203,1,0.7,0.3,0.4,0.6,FALSE,,,,,,,,,,,,,,,,,,,,,,,,,,,,,,,,,
GOSH_A3,2023-11-09_13h11.15.097,two_step_task_legacy,2022.2.4,Win32,59.83008257,31,learning,0,resources/alien3_norm.png,0.4,resources/alien4_norm.png,0.6,TRUE,TRUE,2,0.367923568,purple,x,0.0329,alien4,TRUE,2,0.176902254,99,1,0.6,m,0.3839,0,204,204,204,1,0.7,0.3,0.4,0.6,FALSE,,,,,,,,,,,,,,,,,,,,,,,,,,,,,,,,,
GOSH_A3,2023-11-09_13h11.15.097,two_step_task_legacy,2022.2.4,Win32,59.83008257,31,learning,1,resources/alien2_norm.png,0.3,resources/alien1_norm.png,0.7,TRUE,TRUE,3,0.882770487,red,x,0.0258,alien1,TRUE,3,0.980542328,99,0,0.7,m,0.7034,0,205,205,205,1,0.7,0.3,0.4,0.6,TRUE,,,,,,,,,,,,,,,,,,,,,,,,,,,,,,,,,
GOSH_A3,2023-11-09_13h11.15.097,two_step_task_legacy,2022.2.4,Win32,59.83008257,31,learning,0,resources/alien2_norm.png,0.3,resources/alien1_norm.png,0.7,TRUE,TRUE,3,0.471825169,red,m,0.2538,alien1,TRUE,2,0.543966893,100,1,0.7,m,0.4176,0,206,206,206,1,0.7,0.3,0.4,0.6,TRUE,,,,,,,,,,,,,,,,,,,,,,,,,,,,,,,,,
GOSH_A3,2023-11-09_13h11.15.097,two_step_task_legacy,2022.2.4,Win32,59.83008257,31,learning,0,resources/alien2_norm.png,0.3,resources/alien1_norm.png,0.7,TRUE,TRUE,3,0.439859571,red,m,0.3404,alien1,TRUE,3,0.856980339,100,0,0.7,m,0.4399,0,207,207,207,1,0.7,0.3,0.4,0.6,TRUE,,,,,,,,,,,,,,,,,,,,,,,,,,,,,,,,,
GOSH_A3,2023-11-09_13h11.15.097,two_step_task_legacy,2022.2.4,Win32,59.83008257,31,learning,0,resources/alien1_norm.png,0.7,resources/alien2_norm.png,0.3,TRUE,TRUE,3,0.061504083,red,m,0.0498,alien1,TRUE,3,0.988528629,100,0,0.7,x,0.4834,0,208,208,208,1,0.7,0.3,0.4,0.6,FALSE,,,,,,,,,,,,,,,,,,,,,,,,,,,,,,,,,
GOSH_A3,2023-11-09_13h11.15.097,two_step_task_legacy,2022.2.4,Win32,59.83008257,31,learning,0,resources/alien3_norm.png,0.4,resources/alien4_norm.png,0.6,TRUE,TRUE,2,0.695850641,purple,x,0.2663,alien4,TRUE,3,0.632868043,100,0,0.6,m,0.4273,0,209,209,209,1,0.7,0.3,0.4,0.6,FALSE,,,,,,,,,,,,,,,,,,,,,,,,,,,,,,,,,
GOSH_A3,2023-11-09_13h11.15.097,two_step_task_legacy,2022.2.4,Win32,59.83008257,31,learning,1,resources/alien4_norm.png,0.6,resources/alien3_norm.png,0.4,TRUE,TRUE,2,0.789108616,purple,m,0.1478,alien3,TRUE,3,0.710166558,100,0,0.4,m,0.4494,0,210,210,210,1,0.7,0.3,0.4,0.6,TRUE,,,,,,,,,,,,,,,,,,,,,,,,,,,,,,,,,
GOSH_A3,2023-11-09_13h11.15.097,two_step_task_legacy,2022.2.4,Win32,59.83008257,31,learning,0,resources/alien3_norm.png,0.4,resources/alien4_norm.png,0.6,TRUE,TRUE,2,0.184453764,purple,x,0.1329,alien3,TRUE,2,0.270985469,101,1,0.4,x,1.2954,0,211,211,211,1,0.7,0.3,0.4,0.6,FALSE,,,,,,,,,,,,,,,,,,,,,,,,,,,,,,,,,
GOSH_A3,2023-11-09_13h11.15.097,two_step_task_legacy,2022.2.4,Win32,59.83008257,31,learning,0,resources/alien4_norm.png,0.6,resources/alien3_norm.png,0.4,TRUE,TRUE,2,0.468844899,purple,x,0.4008,alien3,TRUE,3,0.913000087,101,0,0.4,m,0.4518,0,212,212,212,1,0.7,0.3,0.4,0.6,TRUE,,,,,,,,,,,,,,,,,,,,,,,,,,,,,,,,,
GOSH_A3,2023-11-09_13h11.15.097,two_step_task_legacy,2022.2.4,Win32,59.83008257,31,learning,1,resources/alien3_norm.png,0.4,resources/alien4_norm.png,0.6,TRUE,TRUE,2,0.734822652,purple,m,0.0155,alien4,TRUE,3,0.672832963,101,0,0.6,m,1.2794,0,213,213,213,1,0.7,0.3,0.4,0.6,FALSE,,,,,,,,,,,,,,,,,,,,,,,,,,,,,,,,,
GOSH_A3,2023-11-09_13h11.15.097,two_step_task_legacy,2022.2.4,Win32,59.83008257,31,learning,0,resources/alien3_norm.png,0.4,resources/alien4_norm.png,0.6,TRUE,TRUE,2,0.092025284,purple,x,0.2908,alien3,TRUE,3,0.673953067,101,0,0.4,x,0.3941,0,214,214,214,1,0.7,0.3,0.4,0.6,FALSE,,,,,,,,,,,,,,,,,,,,,,,,,,,,,,,,,
GOSH_A3,2023-11-09_13h11.15.097,two_step_task_legacy,2022.2.4,Win32,59.83008257,31,learning,0,resources/alien1_norm.png,0.7,resources/alien2_norm.png,0.3,TRUE,TRUE,3,0.609447617,red,m,0.5862,alien2,TRUE,3,0.815146908,101,0,0.3,m,0.805,0,215,215,215,1,0.7,0.3,0.4,0.6,FALSE,,,,,,,,,,,,,,,,,,,,,,,,,,,,,,,,,
GOSH_A3,2023-11-09_13h11.15.097,two_step_task_legacy,2022.2.4,Win32,59.83008257,31,learning,0,resources/alien1_norm.png,0.7,resources/alien2_norm.png,0.3,TRUE,TRUE,3,0.063877864,red,m,2.233,alien1,TRUE,2,0.002266973,102,1,0.7,x,1.5383,0,216,216,216,1,0.7,0.3,0.4,0.6,FALSE,,,,,,,,,,,,,,,,,,,,,,,,,,,,,,,,,
GOSH_A3,2023-11-09_13h11.15.097,two_step_task_legacy,2022.2.4,Win32,59.83008257,31,learning,0,resources/alien3_norm.png,0.4,resources/alien4_norm.png,0.6,TRUE,TRUE,2,0.510925599,purple,x,0.2377,alien3,TRUE,3,0.473394749,102,0,0.4,x,0.743,0,217,217,217,1,0.7,0.3,0.4,0.6,FALSE,,,,,,,,,,,,,,,,,,,,,,,,,,,,,,,,,
GOSH_A3,2023-11-09_13h11.15.097,two_step_task_legacy,2022.2.4,Win32,59.83008257,31,learning,0,resources/alien1_norm.png,0.7,resources/alien2_norm.png,0.3,TRUE,TRUE,3,0.489295784,red,m,0.1875,alien1,TRUE,2,0.206175946,103,1,0.7,x,0.8168,0,218,218,218,1,0.7,0.3,0.4,0.6,FALSE,,,,,,,,,,,,,,,,,,,,,,,,,,,,,,,,,
GOSH_A3,2023-11-09_13h11.15.097,two_step_task_legacy,2022.2.4,Win32,59.83008257,31,learning,0,resources/alien2_norm.png,0.3,resources/alien1_norm.png,0.7,TRUE,TRUE,3,0.506678913,red,m,0.3464,alien1,TRUE,2,0.073284585,104,1,0.7,m,1.0178,0,219,219,219,1,0.7,0.3,0.4,0.6,TRUE,,,,,,,,,,,,,,,,,,,,,,,,,,,,,,,,,
GOSH_A3,2023-11-09_13h11.15.097,two_step_task_legacy,2022.2.4,Win32,59.83008257,31,learning,0,resources/alien3_norm.png,0.4,resources/alien4_norm.png,0.6,TRUE,TRUE,2,0.344898199,purple,x,0.5607,alien4,TRUE,2,0.382885356,105,1,0.6,m,1.0391,0,220,220,220,1,0.7,0.3,0.4,0.6,FALSE,,,,,,,,,,,,,,,,,,,,,,,,,,,,,,,,,
GOSH_A3,2023-11-09_13h11.15.097,two_step_task_legacy,2022.2.4,Win32,59.83008257,31,learning,1,resources/alien4_norm.png,0.6,resources/alien3_norm.png,0.4,TRUE,TRUE,2,0.71553213,purple,m,0.267,alien4,TRUE,3,0.72059708,105,0,0.6,x,1.2544,0,221,221,221,1,0.7,0.3,0.4,0.6,TRUE,,,,,,,,,,,,,,,,,,,,,,,,,,,,,,,,,
GOSH_A3,2023-11-09_13h11.15.097,two_step_task_legacy,2022.2.4,Win32,59.83008257,31,learning,0,resources/alien1_norm.png,0.7,resources/alien2_norm.png,0.3,TRUE,TRUE,3,0.045518997,red,m,0.5001,alien1,TRUE,2,0.423329696,106,1,0.7,x,1.5061,0,222,222,222,1,0.7,0.3,0.4,0.6,FALSE,,,,,,,,,,,,,,,,,,,,,,,,,,,,,,,,,
GOSH_A3,2023-11-09_13h11.15.097,two_step_task_legacy,2022.2.4,Win32,59.83008257,31,learning,0,resources/alien1_norm.png,0.7,resources/alien2_norm.png,0.3,TRUE,TRUE,3,0.284590505,red,m,0.5483,alien1,TRUE,2,0.289990477,107,1,0.7,x,0.6673,0,223,223,223,1,0.7,0.3,0.4,0.6,FALSE,,,,,,,,,,,,,,,,,,,,,,,,,,,,,,,,,
GOSH_A3,2023-11-09_13h11.15.097,two_step_task_legacy,2022.2.4,Win32,59.83008257,31,learning,0,resources/alien4_norm.png,0.6,resources/alien3_norm.png,0.4,TRUE,TRUE,2,0.105702174,purple,x,0.203,alien4,TRUE,2,0.481040194,108,1,0.6,x,0.4609,0,224,224,224,1,0.7,0.3,0.4,0.6,TRUE,,,,,,,,,,,,,,,,,,,,,,,,,,,,,,,,,
GOSH_A3,2023-11-09_13h11.15.097,two_step_task_legacy,2022.2.4,Win32,59.83008257,31,learning,0,resources/alien2_norm.png,0.3,resources/alien1_norm.png,0.7,TRUE,TRUE,3,0.580046439,red,m,0.6118,alien1,TRUE,2,0.646273886,109,1,0.7,m,0.6553,0,225,225,225,1,0.7,0.3,0.4,0.6,TRUE,,,,,,,,,,,,,,,,,,,,,,,,,,,,,,,,,
GOSH_A3,2023-11-09_13h11.15.097,two_step_task_legacy,2022.2.4,Win32,59.83008257,31,learning,0,resources/alien4_norm.png,0.6,resources/alien3_norm.png,0.4,TRUE,TRUE,2,0.173785462,purple,x,0.3559,alien3,TRUE,3,0.537002683,109,0,0.4,m,2.2505,0,226,226,226,1,0.7,0.3,0.4,0.6,TRUE,,,,,,,,,,,,,,,,,,,,,,,,,,,,,,,,,
GOSH_A3,2023-11-09_13h11.15.097,two_step_task_legacy,2022.2.4,Win32,59.83008257,31,learning,0,resources/alien3_norm.png,0.4,resources/alien4_norm.png,0.6,TRUE,TRUE,2,0.652382852,purple,x,0.8433,alien4,TRUE,3,0.892202471,109,0,0.6,m,0.6961,0,227,227,227,1,0.7,0.3,0.4,0.6,FALSE,,,,,,,,,,,,,,,,,,,,,,,,,,,,,,,,,
GOSH_A3,2023-11-09_13h11.15.097,two_step_task_legacy,2022.2.4,Win32,59.83008257,31,learning,0,resources/alien2_norm.png,0.3,resources/alien1_norm.png,0.7,TRUE,TRUE,3,0.133349106,red,m,0.0681,alien1,TRUE,3,0.998669413,109,0,0.7,m,1.1391,0,228,228,228,1,0.7,0.3,0.4,0.6,TRUE,,,,,,,,,,,,,,,,,,,,,,,,,,,,,,,,,
GOSH_A3,2023-11-09_13h11.15.097,two_step_task_legacy,2022.2.4,Win32,59.83008257,31,learning,0,resources/alien3_norm.png,0.4,resources/alien4_norm.png,0.6,TRUE,TRUE,2,0.230756629,purple,x,0.2494,alien3,TRUE,3,0.535078203,109,0,0.4,x,0.8752,0,229,229,229,1,0.7,0.3,0.4,0.6,FALSE,,,,,,,,,,,,,,,,,,,,,,,,,,,,,,,,,
GOSH_A3,2023-11-09_13h11.15.097,two_step_task_legacy,2022.2.4,Win32,59.83008257,31,learning,1,resources/alien3_norm.png,0.4,resources/alien4_norm.png,0.6,TRUE,TRUE,2,0.834451604,purple,m,0.2506,alien4,TRUE,2,0.12930852,110,1,0.6,m,0.5057,0,230,230,230,1,0.7,0.3,0.4,0.6,FALSE,,,,,,,,,,,,,,,,,,,,,,,,,,,,,,,,,
GOSH_A3,2023-11-09_13h11.15.097,two_step_task_legacy,2022.2.4,Win32,59.83008257,31,learning,1,resources/alien4_norm.png,0.6,resources/alien3_norm.png,0.4,TRUE,TRUE,2,0.965341212,purple,m,0.3602,alien4,TRUE,2,0.3350814,111,1,0.6,x,0.4408,0,231,231,231,1,0.7,0.3,0.4,0.6,TRUE,,,,,,,,,,,,,,,,,,,,,,,,,,,,,,,,,
GOSH_A3,2023-11-09_13h11.15.097,two_step_task_legacy,2022.2.4,Win32,59.83008257,31,learning,0,resources/alien3_norm.png,0.4,resources/alien4_norm.png,0.6,TRUE,TRUE,2,0.359266397,purple,x,0.2175,alien4,TRUE,3,0.868246533,111,0,0.6,m,0.6332,0,232,232,232,1,0.7,0.3,0.4,0.6,FALSE,,,,,,,,,,,,,,,,,,,,,,,,,,,,,,,,,
GOSH_A3,2023-11-09_13h11.15.097,two_step_task_legacy,2022.2.4,Win32,59.83008257,31,learning,0,resources/alien1_norm.png,0.7,resources/alien2_norm.png,0.3,TRUE,TRUE,3,0.193209494,red,m,0.5578,alien1,TRUE,3,0.768758913,111,0,0.7,x,0.4603,0,233,233,233,1,0.7,0.3,0.4,0.6,FALSE,,,,,,,,,,,,,,,,,,,,,,,,,,,,,,,,,
GOSH_A3,2023-11-09_13h11.15.097,two_step_task_legacy,2022.2.4,Win32,59.83008257,31,learning,0,resources/alien2_norm.png,0.3,resources/alien1_norm.png,0.7,TRUE,TRUE,3,0.051873919,red,m,0.2638,alien2,TRUE,3,0.320270967,111,0,0.3,x,0.4339,0,234,234,234,1,0.7,0.3,0.4,0.6,TRUE,,,,,,,,,,,,,,,,,,,,,,,,,,,,,,,,,
GOSH_A3,2023-11-09_13h11.15.097,two_step_task_legacy,2022.2.4,Win32,59.83008257,31,learning,0,resources/alien2_norm.png,0.3,resources/alien1_norm.png,0.7,TRUE,TRUE,3,0.313545948,red,m,0.317,alien1,TRUE,2,0.424469403,112,1,0.7,m,0.4205,0,235,235,235,1,0.7,0.3,0.4,0.6,TRUE,,,,,,,,,,,,,,,,,,,,,,,,,,,,,,,,,
GOSH_A3,2023-11-09_13h11.15.097,two_step_task_legacy,2022.2.4,Win32,59.83008257,31,learning,0,resources/alien1_norm.png,0.7,resources/alien2_norm.png,0.3,TRUE,TRUE,3,0.144303095,red,m,0.4632,alien1,TRUE,3,0.907511309,112,0,0.7,x,0.4722,0,236,236,236,1,0.7,0.3,0.4,0.6,FALSE,,,,,,,,,,,,,,,,,,,,,,,,,,,,,,,,,
GOSH_A3,2023-11-09_13h11.15.097,two_step_task_legacy,2022.2.4,Win32,59.83008257,31,learning,0,resources/alien3_norm.png,0.4,resources/alien4_norm.png,0.6,TRUE,TRUE,2,0.15233325,purple,x,1.8138,alien4,TRUE,2,0.047986121,113,1,0.6,m,1.3445,0,237,237,237,1,0.7,0.3,0.4,0.6,FALSE,,,,,,,,,,,,,,,,,,,,,,,,,,,,,,,,,
GOSH_A3,2023-11-09_13h11.15.097,two_step_task_legacy,2022.2.4,Win32,59.83008257,31,learning,1,resources/alien4_norm.png,0.6,resources/alien3_norm.png,0.4,TRUE,TRUE,2,0.757931698,purple,m,0.186,alien4,TRUE,3,0.668213176,113,0,0.6,x,0.9218,0,238,238,238,1,0.7,0.3,0.4,0.6,TRUE,,,,,,,,,,,,,,,,,,,,,,,,,,,,,,,,,
GOSH_A3,2023-11-09_13h11.15.097,two_step_task_legacy,2022.2.4,Win32,59.83008257,31,learning,0,resources/alien2_norm.png,0.3,resources/alien1_norm.png,0.7,TRUE,TRUE,3,0.04903655,red,m,0.3868,alien1,TRUE,2,0.232949449,114,1,0.7,m,1.0877,0,239,239,239,1,0.7,0.3,0.4,0.6,TRUE,,,,,,,,,,,,,,,,,,,,,,,,,,,,,,,,,
GOSH_A3,2023-11-09_13h11.15.097,two_step_task_legacy,2022.2.4,Win32,59.83008257,31,learning,1,resources/alien4_norm.png,0.6,resources/alien3_norm.png,0.4,TRUE,TRUE,2,0.707303227,purple,m,0.2896,alien4,TRUE,3,0.809462578,114,0,0.6,x,0.4418,0,240,240,240,1,0.7,0.3,0.4,0.6,TRUE,,,,,,,,,,,,,,,,,,,,,,,,,,,,,,,,,
GOSH_A3,2023-11-09_13h11.15.097,two_step_task_legacy,2022.2.4,Win32,59.83008257,31,learning,0,resources/alien2_norm.png,0.3,resources/alien1_norm.png,0.7,TRUE,TRUE,3,0.459707983,red,m,0.4842,alien1,TRUE,2,0.462217069,115,1,0.7,m,0.7598,0,241,241,241,1,0.7,0.3,0.4,0.6,TRUE,,,,,,,,,,,,,,,,,,,,,,,,,,,,,,,,,
GOSH_A3,2023-11-09_13h11.15.097,two_step_task_legacy,2022.2.4,Win32,59.83008257,31,learning,0,resources/alien3_norm.png,0.4,resources/alien4_norm.png,0.6,TRUE,TRUE,2,0.342727462,purple,x,0.0664,alien3,TRUE,2,0.133759262,116,1,0.4,x,0.3331,0,242,242,242,1,0.7,0.3,0.4,0.6,FALSE,,,,,,,,,,,,,,,,,,,,,,,,,,,,,,,,,
GOSH_A3,2023-11-09_13h11.15.097,two_step_task_legacy,2022.2.4,Win32,59.83008257,31,learning,1,resources/alien3_norm.png,0.4,resources/alien4_norm.png,0.6,TRUE,TRUE,2,0.824651915,purple,m,0.2428,alien3,TRUE,3,0.655104797,116,0,0.4,x,0.5623,0,243,243,243,1,0.7,0.3,0.4,0.6,FALSE,,,,,,,,,,,,,,,,,,,,,,,,,,,,,,,,,
GOSH_A3,2023-11-09_13h11.15.097,two_step_task_legacy,2022.2.4,Win32,59.83008257,31,learning,0,resources/alien1_norm.png,0.7,resources/alien2_norm.png,0.3,TRUE,TRUE,3,0.067972111,red,m,0.1145,alien1,TRUE,2,0.671012296,117,1,0.7,x,0.8373,0,244,244,244,1,0.7,0.3,0.4,0.6,FALSE,,,,,,,,,,,,,,,,,,,,,,,,,,,,,,,,,
GOSH_A3,2023-11-09_13h11.15.097,two_step_task_legacy,2022.2.4,Win32,59.83008257,31,learning,0,resources/alien2_norm.png,0.3,resources/alien1_norm.png,0.7,TRUE,TRUE,3,0.361409056,red,m,0.3708,alien2,TRUE,3,0.738056218,117,0,0.3,x,0.9934,0,245,245,245,1,0.7,0.3,0.4,0.6,TRUE,,,,,,,,,,,,,,,,,,,,,,,,,,,,,,,,,
GOSH_A3,2023-11-09_13h11.15.097,two_step_task_legacy,2022.2.4,Win32,59.83008257,31,learning,1,resources/alien3_norm.png,0.4,resources/alien4_norm.png,0.6,TRUE,TRUE,2,0.76508321,purple,m,0.4031,alien3,TRUE,2,0.029053744,118,1,0.4,x,0.5668,0,246,246,246,1,0.7,0.3,0.4,0.6,FALSE,,,,,,,,,,,,,,,,,,,,,,,,,,,,,,,,,
GOSH_A3,2023-11-09_13h11.15.097,two_step_task_legacy,2022.2.4,Win32,59.83008257,31,learning,1,resources/alien3_norm.png,0.4,resources/alien4_norm.png,0.6,TRUE,TRUE,2,0.978376656,purple,m,0.4038,alien3,TRUE,2,0.210497115,119,1,0.4,x,0.5915,0,247,247,247,1,0.7,0.3,0.4,0.6,FALSE,,,,,,,,,,,,,,,,,,,,,,,,,,,,,,,,,
GOSH_A3,2023-11-09_13h11.15.097,two_step_task_legacy,2022.2.4,Win32,59.83008257,31,learning,0,resources/alien2_norm.png,0.3,resources/alien1_norm.png,0.7,TRUE,TRUE,3,0.03083894,red,m,0.3607,alien1,TRUE,2,0.245125896,120,1,0.7,m,0.4572,0,248,248,248,1,0.7,0.3,0.4,0.6,TRUE,,,,,,,,,,,,,,,,,,,,,,,,,,,,,,,,,
GOSH_A3,2023-11-09_13h11.15.097,two_step_task_legacy,2022.2.4,Win32,59.83008257,31,learning,0,resources/alien1_norm.png,0.7,resources/alien2_norm.png,0.3,TRUE,TRUE,3,0.256303724,red,m,0.2613,alien1,TRUE,2,0.549514646,121,1,0.7,x,0.5251,0,249,249,249,1,0.7,0.3,0.4,0.6,FALSE,,,,,,,,,,,,,,,,,,,,,,,,,,,,,,,,,
GOSH_A3,2023-11-09_13h11.15.097,two_step_task_legacy,2022.2.4,Win32,59.83008257,31,learning,1,resources/alien1_norm.png,0.7,resources/alien2_norm.png,0.3,TRUE,TRUE,3,0.753374106,red,x,0.3114,alien1,TRUE,2,0.664455998,122,1,0.7,x,0.7732,0,250,250,250,1,0.7,0.3,0.4,0.6,FALSE,,,,,,,,,,,,,,,,,,,,,,,,,,,,,,,,,
GOSH_A3,2023-11-09_13h11.15.097,two_step_task_legacy,2022.2.4,Win32,59.83008257,31,learning,0,resources/alien1_norm.png,0.7,resources/alien2_norm.png,0.3,TRUE,TRUE,3,0.510163654,red,m,0.0413,alien1,TRUE,2,0.333144127,123,1,0.7,x,0.445,0,251,251,251,1,0.7,0.3,0.4,0.6,FALSE,,,,,,,,,,,,,,,,,,,,,,,,,,,,,,,,,
GOSH_A3,2023-11-09_13h11.15.097,two_step_task_legacy,2022.2.4,Win32,59.83008257,31,learning,0,resources/alien4_norm.png,0.6,resources/alien3_norm.png,0.4,TRUE,TRUE,2,0.317140046,purple,x,0.0881,alien4,TRUE,3,0.976168631,123,0,0.6,x,0.6667,0,252,252,252,1,0.7,0.3,0.4,0.6,TRUE,,,,,,,,,,,,,,,,,,,,,,,,,,,,,,,,,
GOSH_A3,2023-11-09_13h11.15.097,two_step_task_legacy,2022.2.4,Win32,59.83008257,31,learning,0,resources/alien2_norm.png,0.3,resources/alien1_norm.png,0.7,TRUE,TRUE,3,0.560612816,red,m,0.3674,alien1,TRUE,2,0.556420323,124,1,0.7,m,0.6158,0,253,253,253,1,0.7,0.3,0.4,0.6,TRUE,,,,,,,,,,,,,,,,,,,,,,,,,,,,,,,,,
GOSH_A3,2023-11-09_13h11.15.097,two_step_task_legacy,2022.2.4,Win32,59.83008257,31,learning,0,resources/alien1_norm.png,0.7,resources/alien2_norm.png,0.3,TRUE,TRUE,3,0.430164508,red,m,0.306,alien1,TRUE,2,0.370445459,125,1,0.7,x,0.6065,0,254,254,254,1,0.7,0.3,0.4,0.6,FALSE,,,,,,,,,,,,,,,,,,,,,,,,,,,,,,,,,
GOSH_A3,2023-11-09_13h11.15.097,two_step_task_legacy,2022.2.4,Win32,59.83008257,31,learning,0,resources/alien4_norm.png,0.6,resources/alien3_norm.png,0.4,TRUE,TRUE,2,0.012779021,purple,x,0.2208,alien3,TRUE,3,0.79695613,125,0,0.4,m,0.9004,0,255,255,255,1,0.7,0.3,0.4,0.6,TRUE,,,,,,,,,,,,,,,,,,,,,,,,,,,,,,,,,
GOSH_A3,2023-11-09_13h11.15.097,two_step_task_legacy,2022.2.4,Win32,59.83008257,31,learning,1,resources/alien3_norm.png,0.4,resources/alien4_norm.png,0.6,TRUE,TRUE,2,0.967703846,purple,m,0.3028,alien3,TRUE,3,0.427252038,125,0,0.4,x,2.1384,0,256,256,256,1,0.7,0.3,0.4,0.6,FALSE,,,,,,,,,,,,,,,,,,,,,,,,,,,,,,,,,
GOSH_A3,2023-11-09_13h11.15.097,two_step_task_legacy,2022.2.4,Win32,59.83008257,31,learning,0,resources/alien3_norm.png,0.4,resources/alien4_norm.png,0.6,TRUE,TRUE,2,0.479111816,purple,x,0.5729,alien3,TRUE,3,0.670230953,125,0,0.4,x,1.0564,0,257,257,257,1,0.7,0.3,0.4,0.6,FALSE,,,,,,,,,,,,,,,,,,,,,,,,,,,,,,,,,
GOSH_A3,2023-11-09_13h11.15.097,two_step_task_legacy,2022.2.4,Win32,59.83008257,31,learning,0,resources/alien3_norm.png,0.4,resources/alien4_norm.png,0.6,TRUE,TRUE,2,0.628856831,purple,x,0.2706,alien3,TRUE,3,0.768987514,125,0,0.4,x,0.7083,0,258,258,258,1,0.7,0.3,0.4,0.6,FALSE,,,,,,,,,,,,,,,,,,,,,,,,,,,,,,,,,
GOSH_A3,2023-11-09_13h11.15.097,two_step_task_legacy,2022.2.4,Win32,59.83008257,31,learning,1,resources/alien2_norm.png,0.3,resources/alien1_norm.png,0.7,TRUE,TRUE,3,0.80944558,red,x,0.5343,alien1,TRUE,2,0.597707221,126,1,0.7,m,0.7122,0,259,259,259,1,0.7,0.3,0.4,0.6,TRUE,,,,,,,,,,,,,,,,,,,,,,,,,,,,,,,,,
GOSH_A3,2023-11-09_13h11.15.097,two_step_task_legacy,2022.2.4,Win32,59.83008257,31,learning,0,resources/alien1_norm.png,0.7,resources/alien2_norm.png,0.3,TRUE,TRUE,3,0.429820325,red,m,0.5727,alien1,TRUE,2,0.138679246,127,1,0.7,x,0.9567,0,260,260,260,1,0.7,0.3,0.4,0.6,FALSE,,,,,,,,,,,,,,,,,,,,,,,,,,,,,,,,,
GOSH_A3,2023-11-09_13h11.15.097,two_step_task_legacy,2022.2.4,Win32,59.83008257,31,learning,1,resources/alien3_norm.png,0.4,resources/alien4_norm.png,0.6,TRUE,TRUE,2,0.922738747,purple,m,0.2872,alien4,TRUE,3,0.751804717,127,0,0.6,m,1.3678,0,261,261,261,1,0.7,0.3,0.4,0.6,FALSE,,,,,,,,,,,,,,,,,,,,,,,,,,,,,,,,,
GOSH_A3,2023-11-09_13h11.15.097,two_step_task_legacy,2022.2.4,Win32,59.83008257,31,learning,0,resources/alien1_norm.png,0.7,resources/alien2_norm.png,0.3,TRUE,TRUE,3,0.229517113,red,m,0.3533,alien1,TRUE,2,0.681497375,128,1,0.7,x,1.3499,0,262,262,262,1,0.7,0.3,0.4,0.6,FALSE,,,,,,,,,,,,,,,,,,,,,,,,,,,,,,,,,
GOSH_A3,2023-11-09_13h11.15.097,two_step_task_legacy,2022.2.4,Win32,59.83008257,31,learning,1,resources/alien1_norm.png,0.7,resources/alien2_norm.png,0.3,TRUE,TRUE,3,0.90383094,red,x,0.0173,alien1,TRUE,2,0.210774957,129,1,0.7,x,0.4045,0,263,263,263,1,0.7,0.3,0.4,0.6,FALSE,,,,,,,,,,,,,,,,,,,,,,,,,,,,,,,,,
GOSH_A3,2023-11-09_13h11.15.097,two_step_task_legacy,2022.2.4,Win32,59.83008257,31,learning,1,resources/alien2_norm.png,0.3,resources/alien1_norm.png,0.7,TRUE,TRUE,3,0.859499819,red,x,0.2261,alien2,TRUE,2,0.068850752,130,1,0.3,x,0.3411,0,264,264,264,1,0.7,0.3,0.4,0.6,TRUE,,,,,,,,,,,,,,,,,,,,,,,,,,,,,,,,,
GOSH_A3,2023-11-09_13h11.15.097,two_step_task_legacy,2022.2.4,Win32,59.83008257,31,learning,0,resources/alien2_norm.png,0.3,resources/alien1_norm.png,0.7,TRUE,TRUE,3,0.60269038,red,m,0.4314,alien1,TRUE,3,0.89356821,130,0,0.7,m,0.7613,0,265,265,265,1,0.7,0.3,0.4,0.6,TRUE,,,,,,,,,,,,,,,,,,,,,,,,,,,,,,,,,
GOSH_A3,2023-11-09_13h11.15.097,two_step_task_legacy,2022.2.4,Win32,59.83008257,31,learning,0,resources/alien4_norm.png,0.6,resources/alien3_norm.png,0.4,TRUE,TRUE,2,0.697460627,purple,x,0.6234,alien4,TRUE,3,0.959721284,130,0,0.6,x,0.9723,0,266,266,266,1,0.7,0.3,0.4,0.6,TRUE,,,,,,,,,,,,,,,,,,,,,,,,,,,,,,,,,
GOSH_A3,2023-11-09_13h11.15.097,two_step_task_legacy,2022.2.4,Win32,59.83008257,31,learning,0,resources/alien1_norm.png,0.7,resources/alien2_norm.png,0.3,TRUE,TRUE,3,0.107994838,red,m,0.2346,alien1,TRUE,2,0.394502347,131,1,0.7,x,0.6165,0,267,267,267,1,0.7,0.3,0.4,0.6,FALSE,,,,,,,,,,,,,,,,,,,,,,,,,,,,,,,,,
GOSH_A3,2023-11-09_13h11.15.097,two_step_task_legacy,2022.2.4,Win32,59.83008257,31,learning,1,resources/alien4_norm.png,0.6,resources/alien3_norm.png,0.4,TRUE,TRUE,2,0.823149047,purple,m,0.1117,alien4,TRUE,2,0.19085938,132,1,0.6,x,0.5337,0,268,268,268,1,0.7,0.3,0.4,0.6,TRUE,,,,,,,,,,,,,,,,,,,,,,,,,,,,,,,,,
GOSH_A3,2023-11-09_13h11.15.097,two_step_task_legacy,2022.2.4,Win32,59.83008257,31,learning,0,resources/alien4_norm.png,0.6,resources/alien3_norm.png,0.4,TRUE,TRUE,2,0.305502137,purple,x,1.1971,alien3,TRUE,3,0.704811548,132,0,0.4,m,0.9091,0,269,269,269,1,0.7,0.3,0.4,0.6,TRUE,,,,,,,,,,,,,,,,,,,,,,,,,,,,,,,,,
GOSH_A3,2023-11-09_13h11.15.097,two_step_task_legacy,2022.2.4,Win32,59.83008257,31,learning,0,resources/alien3_norm.png,0.4,resources/alien4_norm.png,0.6,TRUE,TRUE,2,0.504373012,purple,x,1.0737,alien3,TRUE,2,0.066922801,133,1,0.4,x,0.6924,0,270,270,270,1,0.7,0.3,0.4,0.6,FALSE,,,,,,,,,,,,,,,,,,,,,,,,,,,,,,,,,
GOSH_A3,2023-11-09_13h11.15.097,two_step_task_legacy,2022.2.4,Win32,59.83008257,31,learning,0,resources/alien2_norm.png,0.3,resources/alien1_norm.png,0.7,TRUE,TRUE,3,0.619083888,red,m,0.3722,alien1,TRUE,3,0.809169203,133,0,0.7,m,0.6929,0,271,271,271,1,0.7,0.3,0.4,0.6,TRUE,,,,,,,,,,,,,,,,,,,,,,,,,,,,,,,,,
GOSH_A3,2023-11-09_13h11.15.097,two_step_task_legacy,2022.2.4,Win32,59.83008257,31,learning,0,resources/alien4_norm.png,0.6,resources/alien3_norm.png,0.4,TRUE,TRUE,2,0.625367158,purple,x,0.4445,alien3,TRUE,2,0.200023694,134,1,0.4,m,0.72,0,272,272,272,1,0.7,0.3,0.4,0.6,TRUE,,,,,,,,,,,,,,,,,,,,,,,,,,,,,,,,,
GOSH_A3,2023-11-09_13h11.15.097,two_step_task_legacy,2022.2.4,Win32,59.83008257,31,learning,0,resources/alien3_norm.png,0.4,resources/alien4_norm.png,0.6,TRUE,TRUE,2,0.242042146,purple,x,0.5126,alien3,TRUE,2,0.339494865,135,1,0.4,x,0.3717,0,273,273,273,1,0.7,0.3,0.4,0.6,FALSE,,,,,,,,,,,,,,,,,,,,,,,,,,,,,,,,,
GOSH_A3,2023-11-09_13h11.15.097,two_step_task_legacy,2022.2.4,Win32,59.83008257,31,learning,0,resources/alien4_norm.png,0.6,resources/alien3_norm.png,0.4,TRUE,TRUE,2,0.332633286,purple,x,0.1918,alien3,TRUE,2,0.045481686,136,1,0.4,m,0.5149,0,274,274,274,1,0.7,0.3,0.4,0.6,TRUE,,,,,,,,,,,,,,,,,,,,,,,,,,,,,,,,,
GOSH_A3,2023-11-09_13h11.15.097,two_step_task_legacy,2022.2.4,Win32,59.83008257,31,learning,0,resources/alien3_norm.png,0.4,resources/alien4_norm.png,0.6,TRUE,TRUE,2,0.679650062,purple,x,0.3647,alien3,TRUE,3,0.685297136,136,0,0.4,x,0.5898,0,275,275,275,1,0.7,0.3,0.4,0.6,FALSE,,,,,,,,,,,,,,,,,,,,,,,,,,,,,,,,,
GOSH_A3,2023-11-09_13h11.15.097,two_step_task_legacy,2022.2.4,Win32,59.83008257,31,learning,1,resources/alien4_norm.png,0.6,resources/alien3_norm.png,0.4,TRUE,TRUE,2,0.711430753,purple,m,0.2007,alien3,TRUE,3,0.464072875,136,0,0.4,m,1.2682,0,276,276,276,1,0.7,0.3,0.4,0.6,TRUE,,,,,,,,,,,,,,,,,,,,,,,,,,,,,,,,,
GOSH_A3,2023-11-09_13h11.15.097,two_step_task_legacy,2022.2.4,Win32,59.83008257,31,learning,0,resources/alien3_norm.png,0.4,resources/alien4_norm.png,0.6,TRUE,TRUE,2,0.272696319,purple,x,0.4834,alien3,TRUE,3,0.606186945,136,0,0.4,x,0.526,0,277,277,277,1,0.7,0.3,0.4,0.6,FALSE,,,,,,,,,,,,,,,,,,,,,,,,,,,,,,,,,
GOSH_A3,2023-11-09_13h11.15.097,two_step_task_legacy,2022.2.4,Win32,59.83008257,31,learning,0,resources/alien2_norm.png,0.3,resources/alien1_norm.png,0.7,TRUE,TRUE,3,0.215389837,red,m,2.4303,alien1,TRUE,2,0.602543856,137,1,0.7,m,0.7057,0,278,278,278,1,0.7,0.3,0.4,0.6,TRUE,,,,,,,,,,,,,,,,,,,,,,,,,,,,,,,,,
GOSH_A3,2023-11-09_13h11.15.097,two_step_task_legacy,2022.2.4,Win32,59.83008257,31,learning,0,resources/alien1_norm.png,0.7,resources/alien2_norm.png,0.3,TRUE,TRUE,3,0.185173691,red,m,0.4731,alien1,TRUE,2,0.53301373,138,1,0.7,x,0.594,0,279,279,279,1,0.7,0.3,0.4,0.6,FALSE,,,,,,,,,,,,,,,,,,,,,,,,,,,,,,,,,
GOSH_A3,2023-11-09_13h11.15.097,two_step_task_legacy,2022.2.4,Win32,59.83008257,31,learning,0,resources/alien1_norm.png,0.7,resources/alien2_norm.png,0.3,TRUE,TRUE,3,0.670758849,red,m,0.3442,alien1,TRUE,2,0.502772288,139,1,0.7,x,0.6205,0,280,280,280,1,0.7,0.3,0.4,0.6,FALSE,,,,,,,,,,,,,,,,,,,,,,,,,,,,,,,,,
GOSH_A3,2023-11-09_13h11.15.097,two_step_task_legacy,2022.2.4,Win32,59.83008257,31,learning,0,resources/alien2_norm.png,0.3,resources/alien1_norm.png,0.7,TRUE,TRUE,3,0.460972591,red,m,0.3689,alien1,TRUE,2,0.379217218,140,1,0.7,m,0.0504,0,281,281,281,1,0.7,0.3,0.4,0.6,TRUE,,,,,,,,,,,,,,,,,,,,,,,,,,,,,,,,,
GOSH_A3,2023-11-09_13h11.15.097,two_step_task_legacy,2022.2.4,Win32,59.83008257,31,learning,0,resources/alien1_norm.png,0.7,resources/alien2_norm.png,0.3,TRUE,TRUE,3,0.173648743,red,m,0.0872,alien1,TRUE,3,0.990313016,140,0,0.7,x,0.4081,0,282,282,282,1,0.7,0.3,0.4,0.6,FALSE,,,,,,,,,,,,,,,,,,,,,,,,,,,,,,,,,
GOSH_A3,2023-11-09_13h11.15.097,two_step_task_legacy,2022.2.4,Win32,59.83008257,31,learning,0,resources/alien3_norm.png,0.4,resources/alien4_norm.png,0.6,TRUE,TRUE,2,0.17474985,purple,x,0.3685,alien4,TRUE,2,0.379004441,141,1,0.6,m,0.7491,0,283,283,283,1,0.7,0.3,0.4,0.6,FALSE,,,,,,,,,,,,,,,,,,,,,,,,,,,,,,,,,
GOSH_A3,2023-11-09_13h11.15.097,two_step_task_legacy,2022.2.4,Win32,59.83008257,31,learning,1,resources/alien1_norm.png,0.7,resources/alien2_norm.png,0.3,TRUE,TRUE,3,0.755037612,red,x,0.4055,alien1,TRUE,2,0.169766014,142,1,0.7,x,0.2384,0,284,284,284,1,0.7,0.3,0.4,0.6,FALSE,,,,,,,,,,,,,,,,,,,,,,,,,,,,,,,,,
GOSH_A3,2023-11-09_13h11.15.097,two_step_task_legacy,2022.2.4,Win32,59.83008257,31,learning,1,resources/alien4_norm.png,0.6,resources/alien3_norm.png,0.4,TRUE,TRUE,2,0.725101391,purple,m,0.2334,alien4,TRUE,3,0.871825255,142,0,0.6,x,0.8001,0,285,285,285,1,0.7,0.3,0.4,0.6,TRUE,,,,,,,,,,,,,,,,,,,,,,,,,,,,,,,,,
GOSH_A3,2023-11-09_13h11.15.097,two_step_task_legacy,2022.2.4,Win32,59.83008257,31,learning,1,resources/alien3_norm.png,0.4,resources/alien4_norm.png,0.6,TRUE,TRUE,2,0.747192007,purple,m,0.5225,alien3,TRUE,2,0.371265441,143,1,0.4,x,0.658,0,286,286,286,1,0.7,0.3,0.4,0.6,FALSE,,,,,,,,,,,,,,,,,,,,,,,,,,,,,,,,,
GOSH_A3,2023-11-09_13h11.15.097,two_step_task_legacy,2022.2.4,Win32,59.83008257,31,learning,0,resources/alien1_norm.png,0.7,resources/alien2_norm.png,0.3,TRUE,TRUE,3,0.37015745,red,m,0.3547,alien1,TRUE,2,0.232343224,144,1,0.7,x,0.3201,0,287,287,287,1,0.7,0.3,0.4,0.6,FALSE,,,,,,,,,,,,,,,,,,,,,,,,,,,,,,,,,
GOSH_A3,2023-11-09_13h11.15.097,two_step_task_legacy,2022.2.4,Win32,59.83008257,31,learning,1,resources/alien3_norm.png,0.4,resources/alien4_norm.png,0.6,TRUE,TRUE,2,0.866118755,purple,m,0.0663,alien3,TRUE,3,0.753583841,144,0,0.4,x,0.6173,0,288,288,288,1,0.7,0.3,0.4,0.6,FALSE,,,,,,,,,,,,,,,,,,,,,,,,,,,,,,,,,
GOSH_A3,2023-11-09_13h11.15.097,two_step_task_legacy,2022.2.4,Win32,59.83008257,31,learning,0,resources/alien1_norm.png,0.7,resources/alien2_norm.png,0.3,TRUE,TRUE,3,0.313285838,red,m,0.631,alien1,TRUE,3,0.993242435,144,0,0.7,x,0.7054,0,289,289,289,1,0.7,0.3,0.4,0.6,FALSE,,,,,,,,,,,,,,,,,,,,,,,,,,,,,,,,,
