participant,date,expName,psychopyVersion,OS,frameRate,payoff_list,phase,rare_transition,left_alien,left_probabilty,right_alien,right_probabilty,select_sp,show_alien,rocket_trans,rand_sp,planet,key_resp_exp.keys,key_resp_exp.rt,chosen_alien,select_alien,transmoney,rand_money,totalgold,trialgain,probs,key_resp_exp_alien.keys,key_resp_exp_alien.rt,loop_exp.thisRepN,loop_exp.thisTrialN,loop_exp.thisN,loop_exp.thisIndex,loop_exp.ran,p1,p2,p3,p4,flip_sides,static_probability_left,static_probability_right,key_resp_probe.keys,key_resp_probe.rt,accuracy,probe_loop.thisRepN,probe_loop.thisTrialN,probe_loop.thisN,probe_loop.thisIndex,probe_loop.ran,probe_la,probe_ra,key_resp.keys,key_resp.rt,slider.response,slider.rt,post_loop.thisRepN,post_loop.thisTrialN,post_loop.thisN,post_loop.thisIndex,post_loop.ran,text_up,pos_text_up,text_down,pos_img_left_up,left_up_img,right_up_img,left_down_img_1,left_down_img_2,right_down_img_1,right_down_img_2,size,show_slider
GOSH_A5,2023-11-09_13h21.50.765,two_step_task_legacy,2022.2.4,Win32,59.34365913,,,,,,,,,,,,,,,,,,,,,,,,,,,,,,,,,,,,,,,,,,,,,,,,,,,,,,,,,,,,,,,,,,
GOSH_A5,2023-11-09_13h21.50.765,two_step_task_legacy,2022.2.4,Win32,59.34365913,,,,,,,,,,,,,,,,,,,,,,,,,,,,,,,,,,,,,,,,,,,,,,,,,,,,,,,,,,,,,,,,,,
GOSH_A5,2023-11-09_13h21.50.765,two_step_task_legacy,2022.2.4,Win32,59.34365913,,,,,,,,,,,,,,,,,,,,,,,,,,,,,,,,,,,,,,,,,,,,,,,,,,,,,,,,,,,,,,,,,,
GOSH_A5,2023-11-09_13h21.50.765,two_step_task_legacy,2022.2.4,Win32,59.34365913,,,,,,,,,,,,,,,,,,,,,,,,,,,,,,,,,,,,,,,,,,,,,,,,,,,,,,,,,,,,,,,,,,
GOSH_A5,2023-11-09_13h21.50.765,two_step_task_legacy,2022.2.4,Win32,59.34365913,,,,,,,,,,,,,,,,,,,,,,,,,,,,,,,,,,,,,,,,,,,,,,,,,,,,,,,,,,,,,,,,,,
GOSH_A5,2023-11-09_13h21.50.765,two_step_task_legacy,2022.2.4,Win32,59.34365913,,,,,,,,,,,,,,,,,,,,,,,,,,,,,,,,,,,,,,,,,,,,,,,,,,,,,,,,,,,,,,,,,,
GOSH_A5,2023-11-09_13h21.50.765,two_step_task_legacy,2022.2.4,Win32,59.34365913,,,,,,,,,,,,,,,,,,,,,,,,,,,,,,,,,,,,,,,,,,,,,,,,,,,,,,,,,,,,,,,,,,
GOSH_A5,2023-11-09_13h21.50.765,two_step_task_legacy,2022.2.4,Win32,59.34365913,,,,,,,,,,,,,,,,,,,,,,,,,,,,,,,,,,,,,,,,,,,,,,,,,,,,,,,,,,,,,,,,,,
GOSH_A5,2023-11-09_13h21.50.765,two_step_task_legacy,2022.2.4,Win32,59.34365913,,,,,,,,,,,,,,,,,,,,,,,,,,,,,,,,,,,,,,,,,,,,,,,,,,,,,,,,,,,,,,,,,,
GOSH_A5,2023-11-09_13h21.50.765,two_step_task_legacy,2022.2.4,Win32,59.34365913,,,,,,,,,,,,,,,,,,,,,,,,,,,,,,,,,,,,,,,,,,,,,,,,,,,,,,,,,,,,,,,,,,
GOSH_A5,2023-11-09_13h21.50.765,two_step_task_legacy,2022.2.4,Win32,59.34365913,,,,,,,,,,,,,,,,,,,,,,,,,,,,,,,,,,,,,,,,,,,,,,,,,,,,,,,,,,,,,,,,,,
GOSH_A5,2023-11-09_13h21.50.765,two_step_task_legacy,2022.2.4,Win32,59.34365913,32,learning,0,resources/alien3_norm.png,0.405114184,resources/alien4_norm.png,0.576765095,TRUE,TRUE,2,0.461955976,purple,x,0.8387,alien4,TRUE,3,0.746772583,0,0,0.576765095,m,0.7501,0,0,0,0,1,0.308256968,0.40239633,0.405114184,0.576765095,FALSE,,,,,,,,,,,,,,,,,,,,,,,,,,,,,,,,,
GOSH_A5,2023-11-09_13h21.50.765,two_step_task_legacy,2022.2.4,Win32,59.34365913,32,learning,1,resources/alien2_norm.png,0.388624967,resources/alien1_norm.png,0.303750526,TRUE,TRUE,3,0.985606099,red,x,0.3385,alien2,TRUE,3,0.756788434,0,0,0.388624967,x,0.8206,0,1,1,1,1,0.303750526,0.388624967,0.375848967,0.559690988,TRUE,,,,,,,,,,,,,,,,,,,,,,,,,,,,,,,,,
GOSH_A5,2023-11-09_13h21.50.765,two_step_task_legacy,2022.2.4,Win32,59.34365913,32,learning,0,resources/alien3_norm.png,0.35374972,resources/alien4_norm.png,0.549731917,TRUE,TRUE,2,0.46857432,purple,x,0.3174,alien3,TRUE,3,0.692647818,0,0,0.35374972,x,0.6158,0,2,2,2,1,0.282146791,0.385789481,0.35374972,0.549731917,FALSE,,,,,,,,,,,,,,,,,,,,,,,,,,,,,,,,,
GOSH_A5,2023-11-09_13h21.50.765,two_step_task_legacy,2022.2.4,Win32,59.34365913,32,learning,0,resources/alien1_norm.png,0.311035025,resources/alien2_norm.png,0.386027604,TRUE,TRUE,3,0.527574927,red,m,0.3404,alien1,TRUE,2,0.053712515,1,1,0.311035025,x,0.9669,0,3,3,3,1,0.311035025,0.386027604,0.370417199,0.56697718,FALSE,,,,,,,,,,,,,,,,,,,,,,,,,,,,,,,,,
GOSH_A5,2023-11-09_13h21.50.765,two_step_task_legacy,2022.2.4,Win32,59.34365913,32,learning,1,resources/alien3_norm.png,0.3707712,resources/alien4_norm.png,0.553983958,TRUE,TRUE,2,0.722496056,purple,m,0.6396,alien4,TRUE,2,0.07035597,2,1,0.553983958,m,0.9059,0,4,4,4,1,0.330037275,0.406497431,0.3707712,0.553983958,FALSE,,,,,,,,,,,,,,,,,,,,,,,,,,,,,,,,,
GOSH_A5,2023-11-09_13h21.50.765,two_step_task_legacy,2022.2.4,Win32,59.34365913,32,learning,1,resources/alien3_norm.png,0.411737843,resources/alien4_norm.png,0.550383913,TRUE,TRUE,2,0.725118765,purple,m,0.4565,alien4,TRUE,3,0.894494094,2,0,0.550383913,m,0.3871,0,5,5,5,1,0.319697015,0.420924571,0.411737843,0.550383913,FALSE,,,,,,,,,,,,,,,,,,,,,,,,,,,,,,,,,
GOSH_A5,2023-11-09_13h21.50.765,two_step_task_legacy,2022.2.4,Win32,59.34365913,32,learning,0,resources/alien2_norm.png,0.429259747,resources/alien1_norm.png,0.374534372,TRUE,TRUE,3,0.586268758,red,m,0.2935,alien1,TRUE,3,0.921496105,2,0,0.374534372,m,0.2991,0,6,6,6,1,0.374534372,0.429259747,0.40380265,0.532545331,TRUE,,,,,,,,,,,,,,,,,,,,,,,,,,,,,,,,,
GOSH_A5,2023-11-09_13h21.50.765,two_step_task_legacy,2022.2.4,Win32,59.34365913,32,learning,0,resources/alien2_norm.png,0.385603329,resources/alien1_norm.png,0.373347589,TRUE,TRUE,3,0.440872318,red,m,0.3984,alien2,TRUE,2,0.304122667,3,1,0.385603329,x,0.8403,0,7,7,7,1,0.373347589,0.385603329,0.434730642,0.528660643,TRUE,,,,,,,,,,,,,,,,,,,,,,,,,,,,,,,,,
GOSH_A5,2023-11-09_13h21.50.765,two_step_task_legacy,2022.2.4,Win32,59.34365913,32,learning,0,resources/alien2_norm.png,0.425716221,resources/alien1_norm.png,0.337951362,TRUE,TRUE,3,0.295944984,red,m,0.521,alien2,TRUE,2,0.283862508,4,1,0.425716221,x,0.4931,0,8,8,8,1,0.337951362,0.425716221,0.398281448,0.502939316,TRUE,,,,,,,,,,,,,,,,,,,,,,,,,,,,,,,,,
GOSH_A5,2023-11-09_13h21.50.765,two_step_task_legacy,2022.2.4,Win32,59.34365913,32,learning,1,resources/alien3_norm.png,0.380634322,resources/alien4_norm.png,0.511941223,TRUE,TRUE,2,0.868770702,purple,m,0.2833,alien3,TRUE,2,0.212728575,5,1,0.380634322,x,0.3576,0,9,9,9,1,0.348751458,0.409492703,0.380634322,0.511941223,FALSE,,,,,,,,,,,,,,,,,,,,,,,,,,,,,,,,,
GOSH_A5,2023-11-09_13h21.50.765,two_step_task_legacy,2022.2.4,Win32,59.34365913,32,learning,1,resources/alien3_norm.png,0.356859485,resources/alien4_norm.png,0.461856458,TRUE,TRUE,2,0.863771463,purple,m,0.3666,alien3,TRUE,3,0.746234218,5,0,0.356859485,x,1.1288,0,10,10,10,1,0.359100765,0.420449466,0.356859485,0.461856458,FALSE,,,,,,,,,,,,,,,,,,,,,,,,,,,,,,,,,
GOSH_A5,2023-11-09_13h21.50.765,two_step_task_legacy,2022.2.4,Win32,59.34365913,32,learning,0,resources/alien2_norm.png,0.433505728,resources/alien1_norm.png,0.334786622,TRUE,TRUE,3,0.625218005,red,m,0.4675,alien2,TRUE,2,0.112235429,6,1,0.433505728,x,0.4217,0,11,11,11,1,0.334786622,0.433505728,0.332591039,0.457442013,TRUE,,,,,,,,,,,,,,,,,,,,,,,,,,,,,,,,,
GOSH_A5,2023-11-09_13h21.50.765,two_step_task_legacy,2022.2.4,Win32,59.34365913,32,learning,0,resources/alien1_norm.png,0.310197991,resources/alien2_norm.png,0.440948156,TRUE,TRUE,3,0.595475214,red,m,0.8375,alien2,TRUE,3,0.699019457,6,0,0.440948156,m,0.6566,0,12,12,12,1,0.310197991,0.440948156,0.345881542,0.428850041,FALSE,,,,,,,,,,,,,,,,,,,,,,,,,,,,,,,,,
GOSH_A5,2023-11-09_13h21.50.765,two_step_task_legacy,2022.2.4,Win32,59.34365913,32,learning,0,resources/alien2_norm.png,0.447699877,resources/alien1_norm.png,0.336275699,TRUE,TRUE,3,0.393167294,red,m,0.2832,alien2,TRUE,2,0.275434085,7,1,0.447699877,x,0.7406,0,13,13,13,1,0.336275699,0.447699877,0.3560984,0.439803574,TRUE,,,,,,,,,,,,,,,,,,,,,,,,,,,,,,,,,
GOSH_A5,2023-11-09_13h21.50.765,two_step_task_legacy,2022.2.4,Win32,59.34365913,32,learning,1,resources/alien4_norm.png,0.445128952,resources/alien3_norm.png,0.377740833,TRUE,TRUE,2,0.725038005,purple,m,0.334,alien4,TRUE,2,0.117500529,8,1,0.445128952,x,0.5779,0,14,14,14,1,0.310955652,0.431966512,0.377740833,0.445128952,TRUE,,,,,,,,,,,,,,,,,,,,,,,,,,,,,,,,,
GOSH_A5,2023-11-09_13h21.50.765,two_step_task_legacy,2022.2.4,Win32,59.34365913,32,learning,0,resources/alien2_norm.png,0.439469287,resources/alien1_norm.png,0.288460094,TRUE,TRUE,3,0.182959263,red,m,0.4318,alien2,TRUE,3,0.721203629,8,0,0.439469287,x,0.4389,0,15,15,15,1,0.288460094,0.439469287,0.386367482,0.419394809,TRUE,,,,,,,,,,,,,,,,,,,,,,,,,,,,,,,,,
GOSH_A5,2023-11-09_13h21.50.765,two_step_task_legacy,2022.2.4,Win32,59.34365913,32,learning,1,resources/alien1_norm.png,0.314264702,resources/alien2_norm.png,0.40618889,TRUE,TRUE,3,0.934904155,red,x,1.2401,alien2,TRUE,2,0.079509886,9,1,0.40618889,m,0.551,0,16,16,16,1,0.314264702,0.40618889,0.389875525,0.429867389,FALSE,,,,,,,,,,,,,,,,,,,,,,,,,,,,,,,,,
GOSH_A5,2023-11-09_13h21.50.765,two_step_task_legacy,2022.2.4,Win32,59.34365913,32,learning,0,resources/alien1_norm.png,0.329479215,resources/alien2_norm.png,0.436753725,TRUE,TRUE,3,0.485427085,red,m,0.4999,alien2,TRUE,3,0.506360401,9,0,0.436753725,m,0.5235,0,17,17,17,1,0.329479215,0.436753725,0.423447256,0.42195488,FALSE,,,,,,,,,,,,,,,,,,,,,,,,,,,,,,,,,
GOSH_A5,2023-11-09_13h21.50.765,two_step_task_legacy,2022.2.4,Win32,59.34365913,32,learning,0,resources/alien1_norm.png,0.342162292,resources/alien2_norm.png,0.430858483,TRUE,TRUE,3,0.043292876,red,m,0.3143,alien2,TRUE,3,0.885900904,9,0,0.430858483,m,0.3682,0,18,18,18,1,0.342162292,0.430858483,0.421696126,0.415809758,FALSE,,,,,,,,,,,,,,,,,,,,,,,,,,,,,,,,,
GOSH_A5,2023-11-09_13h21.50.765,two_step_task_legacy,2022.2.4,Win32,59.34365913,32,learning,0,resources/alien3_norm.png,0.423426482,resources/alien4_norm.png,0.360130556,TRUE,TRUE,2,0.11263227,purple,x,0.9219,alien4,TRUE,2,0.060686105,10,1,0.360130556,m,1.0163,0,19,19,19,1,0.340493369,0.429971496,0.423426482,0.360130556,FALSE,,,,,,,,,,,,,,,,,,,,,,,,,,,,,,,,,
GOSH_A5,2023-11-09_13h21.50.765,two_step_task_legacy,2022.2.4,Win32,59.34365913,32,learning,0,resources/alien3_norm.png,0.469317449,resources/alien4_norm.png,0.33758227,TRUE,TRUE,2,0.292839211,purple,x,0.8545,alien4,TRUE,2,0.253362777,11,1,0.33758227,m,0.3597,0,20,20,20,1,0.372574772,0.488195359,0.469317449,0.33758227,FALSE,,,,,,,,,,,,,,,,,,,,,,,,,,,,,,,,,
GOSH_A5,2023-11-09_13h21.50.765,two_step_task_legacy,2022.2.4,Win32,59.34365913,32,learning,0,resources/alien4_norm.png,0.293125872,resources/alien3_norm.png,0.438740885,TRUE,TRUE,2,0.242980504,purple,x,0.4023,alien4,TRUE,2,0.004312336,12,1,0.293125872,x,0.7401,0,21,21,21,1,0.362843116,0.469414634,0.438740885,0.293125872,TRUE,,,,,,,,,,,,,,,,,,,,,,,,,,,,,,,,,
GOSH_A5,2023-11-09_13h21.50.765,two_step_task_legacy,2022.2.4,Win32,59.34365913,32,learning,0,resources/alien4_norm.png,0.298589211,resources/alien3_norm.png,0.425207524,TRUE,TRUE,2,0.054589057,purple,x,0.4522,alien4,TRUE,3,0.906609761,12,0,0.298589211,x,0.4038,0,22,22,22,1,0.373683349,0.473626381,0.425207524,0.298589211,TRUE,,,,,,,,,,,,,,,,,,,,,,,,,,,,,,,,,
GOSH_A5,2023-11-09_13h21.50.765,two_step_task_legacy,2022.2.4,Win32,59.34365913,32,learning,0,resources/alien3_norm.png,0.452541111,resources/alien4_norm.png,0.32710624,TRUE,TRUE,2,0.395762742,purple,x,0.3602,alien4,TRUE,2,0.042327348,13,1,0.32710624,m,0.4348,0,23,23,23,1,0.402849975,0.519983858,0.452541111,0.32710624,FALSE,,,,,,,,,,,,,,,,,,,,,,,,,,,,,,,,,
GOSH_A5,2023-11-09_13h21.50.765,two_step_task_legacy,2022.2.4,Win32,59.34365913,32,learning,1,resources/alien2_norm.png,0.508985053,resources/alien1_norm.png,0.400026357,TRUE,TRUE,3,0.734710196,red,x,0.4206,alien1,TRUE,2,0.314961064,14,1,0.400026357,m,1.0458,0,24,24,24,1,0.400026357,0.508985053,0.38285773,0.324564679,TRUE,,,,,,,,,,,,,,,,,,,,,,,,,,,,,,,,,
GOSH_A5,2023-11-09_13h21.50.765,two_step_task_legacy,2022.2.4,Win32,59.34365913,32,learning,1,resources/alien2_norm.png,0.486523154,resources/alien1_norm.png,0.402023678,TRUE,TRUE,3,0.961169732,red,x,0.5271,alien1,TRUE,2,0.082420552,15,1,0.402023678,m,0.9272,0,25,25,25,1,0.402023678,0.486523154,0.375587977,0.319972093,TRUE,,,,,,,,,,,,,,,,,,,,,,,,,,,,,,,,,
GOSH_A5,2023-11-09_13h21.50.765,two_step_task_legacy,2022.2.4,Win32,59.34365913,32,learning,1,resources/alien2_norm.png,0.530270136,resources/alien1_norm.png,0.420450172,TRUE,TRUE,3,0.805665753,red,x,0.3249,alien1,TRUE,3,0.639632162,15,0,0.420450172,m,0.6452,0,26,26,26,1,0.420450172,0.530270136,0.353910913,0.297210029,TRUE,,,,,,,,,,,,,,,,,,,,,,,,,,,,,,,,,
GOSH_A5,2023-11-09_13h21.50.765,two_step_task_legacy,2022.2.4,Win32,59.34365913,32,learning,0,resources/alien3_norm.png,0.369124849,resources/alien4_norm.png,0.253963994,TRUE,TRUE,2,0.295635956,purple,x,0.5551,alien3,TRUE,3,0.731475034,15,0,0.369124849,x,1.2708,0,27,27,27,1,0.405422621,0.527962437,0.369124849,0.253963994,FALSE,,,,,,,,,,,,,,,,,,,,,,,,,,,,,,,,,
GOSH_A5,2023-11-09_13h21.50.765,two_step_task_legacy,2022.2.4,Win32,59.34365913,32,learning,1,resources/alien1_norm.png,0.399682699,resources/alien2_norm.png,0.51696249,TRUE,TRUE,3,0.959277632,red,x,0.322,alien2,TRUE,2,0.403014083,16,1,0.51696249,m,0.816,0,28,28,28,1,0.399682699,0.51696249,0.362253929,0.269385642,FALSE,,,,,,,,,,,,,,,,,,,,,,,,,,,,,,,,,
GOSH_A5,2023-11-09_13h21.50.765,two_step_task_legacy,2022.2.4,Win32,59.34365913,32,learning,1,resources/alien2_norm.png,0.521911456,resources/alien1_norm.png,0.373511879,TRUE,TRUE,3,0.879518086,red,x,0.5731,alien2,TRUE,2,0.307187174,17,1,0.521911456,x,0.6676,0,29,29,29,1,0.373511879,0.521911456,0.368211467,0.261193688,TRUE,,,,,,,,,,,,,,,,,,,,,,,,,,,,,,,,,
GOSH_A5,2023-11-09_13h21.50.765,two_step_task_legacy,2022.2.4,Win32,59.34365913,32,learning,0,resources/alien3_norm.png,0.353327525,resources/alien4_norm.png,0.264489197,TRUE,TRUE,2,0.084078756,purple,x,0.4499,alien3,TRUE,3,0.669702523,17,0,0.353327525,x,1.3287,0,30,30,30,1,0.369088209,0.529599042,0.353327525,0.264489197,FALSE,,,,,,,,,,,,,,,,,,,,,,,,,,,,,,,,,
GOSH_A5,2023-11-09_13h21.50.765,two_step_task_legacy,2022.2.4,Win32,59.34365913,32,learning,0,resources/alien3_norm.png,0.368425487,resources/alien4_norm.png,0.280919229,TRUE,TRUE,2,0.695519453,purple,x,0.4106,alien4,TRUE,3,0.444596816,17,0,0.280919229,m,0.661,0,31,31,31,1,0.393762256,0.510609834,0.368425487,0.280919229,FALSE,,,,,,,,,,,,,,,,,,,,,,,,,,,,,,,,,
GOSH_A5,2023-11-09_13h21.50.765,two_step_task_legacy,2022.2.4,Win32,59.34365913,32,learning,0,resources/alien4_norm.png,0.266638039,resources/alien3_norm.png,0.358105587,TRUE,TRUE,2,0.184930943,purple,x,0.263,alien3,TRUE,3,0.591507381,17,0,0.358105587,m,1.0838,0,32,32,32,1,0.373790081,0.507604702,0.358105587,0.266638039,TRUE,,,,,,,,,,,,,,,,,,,,,,,,,,,,,,,,,
GOSH_A5,2023-11-09_13h21.50.765,two_step_task_legacy,2022.2.4,Win32,59.34365913,32,learning,0,resources/alien1_norm.png,0.350236748,resources/alien2_norm.png,0.500092553,TRUE,TRUE,3,0.127815198,red,m,0.4275,alien1,TRUE,2,0.309970495,18,1,0.350236748,x,0.8103,0,33,33,33,1,0.350236748,0.500092553,0.337718374,0.275964805,FALSE,,,,,,,,,,,,,,,,,,,,,,,,,,,,,,,,,
GOSH_A5,2023-11-09_13h21.50.765,two_step_task_legacy,2022.2.4,Win32,59.34365913,32,learning,0,resources/alien1_norm.png,0.388262412,resources/alien2_norm.png,0.518183331,TRUE,TRUE,3,0.022852113,red,m,0.2663,alien1,TRUE,2,0.045961053,19,1,0.388262412,x,0.5285,0,34,34,34,1,0.388262412,0.518183331,0.327684966,0.290796063,FALSE,,,,,,,,,,,,,,,,,,,,,,,,,,,,,,,,,
GOSH_A5,2023-11-09_13h21.50.765,two_step_task_legacy,2022.2.4,Win32,59.34365913,32,learning,1,resources/alien3_norm.png,0.32270523,resources/alien4_norm.png,0.317792719,TRUE,TRUE,2,0.849370818,purple,m,0.2894,alien4,TRUE,2,0.132815592,20,1,0.317792719,m,1.0535,0,35,35,35,1,0.40428015,0.472961766,0.32270523,0.317792719,FALSE,,,,,,,,,,,,,,,,,,,,,,,,,,,,,,,,,
GOSH_A5,2023-11-09_13h21.50.765,two_step_task_legacy,2022.2.4,Win32,59.34365913,32,learning,0,resources/alien2_norm.png,0.466723822,resources/alien1_norm.png,0.419939613,TRUE,TRUE,3,0.464951819,red,m,0.4689,alien1,TRUE,3,0.421889093,20,0,0.419939613,m,0.8381,0,36,36,36,1,0.419939613,0.466723822,0.298331474,0.342618194,TRUE,,,,,,,,,,,,,,,,,,,,,,,,,,,,,,,,,
GOSH_A5,2023-11-09_13h21.50.765,two_step_task_legacy,2022.2.4,Win32,59.34365913,32,learning,0,resources/alien2_norm.png,0.45141104,resources/alien1_norm.png,0.444492901,TRUE,TRUE,3,0.622409048,red,m,0.4834,alien2,TRUE,3,0.539642033,20,0,0.45141104,x,0.6222,0,37,37,37,1,0.444492901,0.45141104,0.326299774,0.343990348,TRUE,,,,,,,,,,,,,,,,,,,,,,,,,,,,,,,,,
GOSH_A5,2023-11-09_13h21.50.765,two_step_task_legacy,2022.2.4,Win32,59.34365913,32,learning,1,resources/alien3_norm.png,0.376848747,resources/alien4_norm.png,0.345560128,TRUE,TRUE,2,0.813697788,purple,m,0.2478,alien4,TRUE,3,0.76123197,20,0,0.345560128,m,0.9704,0,38,38,38,1,0.455119364,0.436675205,0.376848747,0.345560128,FALSE,,,,,,,,,,,,,,,,,,,,,,,,,,,,,,,,,
GOSH_A5,2023-11-09_13h21.50.765,two_step_task_legacy,2022.2.4,Win32,59.34365913,32,learning,0,resources/alien1_norm.png,0.473916732,resources/alien2_norm.png,0.398768533,TRUE,TRUE,3,0.133748435,red,m,0.1954,alien1,TRUE,3,0.637208017,20,0,0.473916732,x,0.8938,0,39,39,39,1,0.473916732,0.398768533,0.335948756,0.346374291,FALSE,,,,,,,,,,,,,,,,,,,,,,,,,,,,,,,,,
GOSH_A5,2023-11-09_13h21.50.765,two_step_task_legacy,2022.2.4,Win32,59.34365913,32,learning,1,resources/alien4_norm.png,0.372665099,resources/alien3_norm.png,0.326012081,TRUE,TRUE,2,0.741317897,purple,m,0.3699,alien4,TRUE,3,0.478279041,20,0,0.372665099,x,0.7664,0,40,40,40,1,0.453608657,0.38513003,0.326012081,0.372665099,TRUE,,,,,,,,,,,,,,,,,,,,,,,,,,,,,,,,,
GOSH_A5,2023-11-09_13h21.50.765,two_step_task_legacy,2022.2.4,Win32,59.34365913,32,learning,0,resources/alien2_norm.png,0.375083918,resources/alien1_norm.png,0.489633997,TRUE,TRUE,3,0.537390388,red,m,1.1052,alien1,TRUE,2,0.120564929,21,1,0.489633997,m,0.5575,0,41,41,41,1,0.489633997,0.375083918,0.334182437,0.335910067,TRUE,,,,,,,,,,,,,,,,,,,,,,,,,,,,,,,,,
GOSH_A5,2023-11-09_13h21.50.765,two_step_task_legacy,2022.2.4,Win32,59.34365913,32,learning,0,resources/alien2_norm.png,0.360235648,resources/alien1_norm.png,0.474630434,TRUE,TRUE,3,0.516207346,red,m,1.0526,alien1,TRUE,2,0.13079044,22,1,0.474630434,m,0.5045,0,42,42,42,1,0.474630434,0.360235648,0.367358515,0.390560607,TRUE,,,,,,,,,,,,,,,,,,,,,,,,,,,,,,,,,
GOSH_A5,2023-11-09_13h21.50.765,two_step_task_legacy,2022.2.4,Win32,59.34365913,32,learning,0,resources/alien2_norm.png,0.378313685,resources/alien1_norm.png,0.42951809,TRUE,TRUE,3,0.515152353,red,m,0.2508,alien1,TRUE,2,0.164006656,23,1,0.42951809,m,0.5372,0,43,43,43,1,0.42951809,0.378313685,0.373864787,0.377396931,TRUE,,,,,,,,,,,,,,,,,,,,,,,,,,,,,,,,,
GOSH_A5,2023-11-09_13h21.50.765,two_step_task_legacy,2022.2.4,Win32,59.34365913,32,learning,0,resources/alien2_norm.png,0.375580743,resources/alien1_norm.png,0.41423471,TRUE,TRUE,3,0.376867746,red,m,0.2477,alien1,TRUE,3,0.484368705,23,0,0.41423471,m,0.3193,0,44,44,44,1,0.41423471,0.375580743,0.366064191,0.332046545,TRUE,,,,,,,,,,,,,,,,,,,,,,,,,,,,,,,,,
GOSH_A5,2023-11-09_13h21.50.765,two_step_task_legacy,2022.2.4,Win32,59.34365913,32,learning,0,resources/alien2_norm.png,0.380099227,resources/alien1_norm.png,0.426559955,TRUE,TRUE,3,0.091364151,red,m,0.2831,alien1,TRUE,3,0.932863654,23,0,0.426559955,m,0.3328,0,45,45,45,1,0.426559955,0.380099227,0.367658769,0.330900517,TRUE,,,,,,,,,,,,,,,,,,,,,,,,,,,,,,,,,
GOSH_A5,2023-11-09_13h21.50.765,two_step_task_legacy,2022.2.4,Win32,59.34365913,32,learning,0,resources/alien2_norm.png,0.393618887,resources/alien1_norm.png,0.433874659,TRUE,TRUE,3,0.087207787,red,m,0.2311,alien1,TRUE,2,0.173733214,24,1,0.433874659,m,0.6092,0,46,46,46,1,0.433874659,0.393618887,0.395073602,0.338616562,TRUE,,,,,,,,,,,,,,,,,,,,,,,,,,,,,,,,,
GOSH_A5,2023-11-09_13h21.50.765,two_step_task_legacy,2022.2.4,Win32,59.34365913,32,learning,0,resources/alien2_norm.png,0.430653864,resources/alien1_norm.png,0.450295057,TRUE,TRUE,3,0.455866135,red,m,0.2842,alien1,TRUE,2,0.309052121,25,1,0.450295057,m,0.5875,0,47,47,47,1,0.450295057,0.430653864,0.374609818,0.334729338,TRUE,,,,,,,,,,,,,,,,,,,,,,,,,,,,,,,,,
GOSH_A5,2023-11-09_13h21.50.765,two_step_task_legacy,2022.2.4,Win32,59.34365913,32,learning,0,resources/alien2_norm.png,0.418768244,resources/alien1_norm.png,0.418756289,TRUE,TRUE,3,0.59796782,red,m,0.2791,alien1,TRUE,3,0.864162927,25,0,0.418756289,m,0.2797,0,48,48,48,1,0.418756289,0.418768244,0.371436141,0.305376419,TRUE,,,,,,,,,,,,,,,,,,,,,,,,,,,,,,,,,
GOSH_A5,2023-11-09_13h21.50.765,two_step_task_legacy,2022.2.4,Win32,59.34365913,32,learning,0,resources/alien2_norm.png,0.416026779,resources/alien1_norm.png,0.429931164,TRUE,TRUE,3,0.101028367,red,m,0.3842,alien2,TRUE,3,0.639404345,25,0,0.416026779,x,0.3917,0,49,49,49,1,0.429931164,0.416026779,0.378685217,0.277158008,TRUE,,,,,,,,,,,,,,,,,,,,,,,,,,,,,,,,,
GOSH_A5,2023-11-09_13h21.50.765,two_step_task_legacy,2022.2.4,Win32,59.34365913,32,learning,0,resources/alien3_norm.png,0.404191826,resources/alien4_norm.png,0.259920018,TRUE,TRUE,2,0.572354455,purple,x,0.2388,alien4,TRUE,3,0.710355582,25,0,0.259920018,m,0.802,0,50,50,50,1,0.423189948,0.403669602,0.404191826,0.259920018,FALSE,,,,,,,,,,,,,,,,,,,,,,,,,,,,,,,,,
GOSH_A5,2023-11-09_13h21.50.765,two_step_task_legacy,2022.2.4,Win32,59.34365913,32,learning,1,resources/alien1_norm.png,0.46566155,resources/alien2_norm.png,0.388479588,TRUE,TRUE,3,0.989314538,red,x,0.3174,alien2,TRUE,3,0.522880054,25,0,0.388479588,m,0.9845,0,51,51,51,1,0.46566155,0.388479588,0.386712818,0.262864975,FALSE,,,,,,,,,,,,,,,,,,,,,,,,,,,,,,,,,
GOSH_A5,2023-11-09_13h21.50.765,two_step_task_legacy,2022.2.4,Win32,59.34365913,32,learning,0,resources/alien3_norm.png,0.391960252,resources/alien4_norm.png,0.285583615,TRUE,TRUE,2,0.294899965,purple,x,0.2589,alien3,TRUE,3,0.519259011,25,0,0.391960252,x,0.437,0,52,52,52,1,0.479911798,0.414122928,0.391960252,0.285583615,FALSE,,,,,,,,,,,,,,,,,,,,,,,,,,,,,,,,,
GOSH_A5,2023-11-09_13h21.50.765,two_step_task_legacy,2022.2.4,Win32,59.34365913,32,learning,0,resources/alien4_norm.png,0.299540972,resources/alien3_norm.png,0.399745987,TRUE,TRUE,2,0.550538571,purple,x,0.2815,alien4,TRUE,3,0.546243133,25,0,0.299540972,x,0.4098,0,53,53,53,1,0.501808655,0.4061242,0.399745987,0.299540972,TRUE,,,,,,,,,,,,,,,,,,,,,,,,,,,,,,,,,
GOSH_A5,2023-11-09_13h21.50.765,two_step_task_legacy,2022.2.4,Win32,59.34365913,32,learning,0,resources/alien1_norm.png,0.527708274,resources/alien2_norm.png,0.359177564,TRUE,TRUE,3,0.132193941,red,m,0.2357,alien2,TRUE,2,0.087529389,26,1,0.359177564,m,0.4136,0,54,54,54,1,0.527708274,0.359177564,0.380062342,0.276023362,FALSE,,,,,,,,,,,,,,,,,,,,,,,,,,,,,,,,,
GOSH_A5,2023-11-09_13h21.50.765,two_step_task_legacy,2022.2.4,Win32,59.34365913,32,learning,0,resources/alien2_norm.png,0.335192551,resources/alien1_norm.png,0.467096746,TRUE,TRUE,3,0.197335365,red,m,0.2198,alien2,TRUE,3,0.384232077,26,0,0.335192551,x,0.5249,0,55,55,55,1,0.467096746,0.335192551,0.369346775,0.283917662,TRUE,,,,,,,,,,,,,,,,,,,,,,,,,,,,,,,,,
GOSH_A5,2023-11-09_13h21.50.765,two_step_task_legacy,2022.2.4,Win32,59.34365913,32,learning,0,resources/alien1_norm.png,0.474303155,resources/alien2_norm.png,0.326440982,TRUE,TRUE,3,0.479959031,red,m,0.3173,alien2,TRUE,3,0.552308987,26,0,0.326440982,m,0.3579,0,56,56,56,1,0.474303155,0.326440982,0.343447378,0.32981414,FALSE,,,,,,,,,,,,,,,,,,,,,,,,,,,,,,,,,
GOSH_A5,2023-11-09_13h21.50.765,two_step_task_legacy,2022.2.4,Win32,59.34365913,32,learning,1,resources/alien4_norm.png,0.321408807,resources/alien3_norm.png,0.366063729,TRUE,TRUE,2,0.986091023,purple,m,0.2893,alien4,TRUE,3,0.393908749,26,0,0.321408807,x,1.1291,0,57,57,57,1,0.494860486,0.328796997,0.366063729,0.321408807,TRUE,,,,,,,,,,,,,,,,,,,,,,,,,,,,,,,,,
GOSH_A5,2023-11-09_13h21.50.765,two_step_task_legacy,2022.2.4,Win32,59.34365913,32,learning,0,resources/alien1_norm.png,0.50196401,resources/alien2_norm.png,0.330964254,TRUE,TRUE,3,0.684194233,red,m,0.413,alien2,TRUE,3,0.571505827,26,0,0.330964254,m,0.5329,0,58,58,58,1,0.50196401,0.330964254,0.361259173,0.358143684,FALSE,,,,,,,,,,,,,,,,,,,,,,,,,,,,,,,,,
GOSH_A5,2023-11-09_13h21.50.765,two_step_task_legacy,2022.2.4,Win32,59.34365913,32,learning,0,resources/alien1_norm.png,0.482347299,resources/alien2_norm.png,0.323248675,TRUE,TRUE,3,0.266865668,red,m,0.3007,alien1,TRUE,3,0.663683832,26,0,0.482347299,x,0.6561,0,59,59,59,1,0.482347299,0.323248675,0.387683492,0.363990185,FALSE,,,,,,,,,,,,,,,,,,,,,,,,,,,,,,,,,
GOSH_A5,2023-11-09_13h21.50.765,two_step_task_legacy,2022.2.4,Win32,59.34365913,32,learning,0,resources/alien4_norm.png,0.327016223,resources/alien3_norm.png,0.409203884,TRUE,TRUE,2,0.426838696,purple,x,0.3559,alien3,TRUE,3,0.409387669,26,0,0.409203884,m,0.5834,0,60,60,60,1,0.494040163,0.326370924,0.409203884,0.327016223,TRUE,,,,,,,,,,,,,,,,,,,,,,,,,,,,,,,,,
GOSH_A5,2023-11-09_13h21.50.765,two_step_task_legacy,2022.2.4,Win32,59.34365913,32,learning,0,resources/alien4_norm.png,0.324176298,resources/alien3_norm.png,0.431822039,TRUE,TRUE,2,0.206150078,purple,x,0.4943,alien4,TRUE,3,0.583355282,26,0,0.324176298,x,0.3988,0,61,61,61,1,0.49145617,0.31229175,0.431822039,0.324176298,TRUE,,,,,,,,,,,,,,,,,,,,,,,,,,,,,,,,,
GOSH_A5,2023-11-09_13h21.50.765,two_step_task_legacy,2022.2.4,Win32,59.34365913,32,learning,1,resources/alien2_norm.png,0.357426084,resources/alien1_norm.png,0.511059825,TRUE,TRUE,3,0.968245427,red,x,0.3815,alien2,TRUE,3,0.847258059,26,0,0.357426084,x,0.4103,0,62,62,62,1,0.511059825,0.357426084,0.446935292,0.277711474,TRUE,,,,,,,,,,,,,,,,,,,,,,,,,,,,,,,,,
GOSH_A5,2023-11-09_13h21.50.765,two_step_task_legacy,2022.2.4,Win32,59.34365913,32,learning,0,resources/alien4_norm.png,0.255687654,resources/alien3_norm.png,0.438854963,TRUE,TRUE,2,0.370948368,purple,x,0.3996,alien3,TRUE,3,0.747202542,26,0,0.438854963,m,0.499,0,63,63,63,1,0.494441472,0.355296369,0.438854963,0.255687654,TRUE,,,,,,,,,,,,,,,,,,,,,,,,,,,,,,,,,
GOSH_A5,2023-11-09_13h21.50.765,two_step_task_legacy,2022.2.4,Win32,59.34365913,32,learning,0,resources/alien1_norm.png,0.501267645,resources/alien2_norm.png,0.315888865,TRUE,TRUE,3,0.657112367,red,m,0.3986,alien2,TRUE,3,0.482301459,26,0,0.315888865,m,0.5401,0,64,64,64,1,0.501267645,0.315888865,0.43066716,0.256335775,FALSE,,,,,,,,,,,,,,,,,,,,,,,,,,,,,,,,,
GOSH_A5,2023-11-09_13h21.50.765,two_step_task_legacy,2022.2.4,Win32,59.34365913,32,learning,0,resources/alien1_norm.png,0.536221092,resources/alien2_norm.png,0.322265245,TRUE,TRUE,3,0.275876711,red,m,0.3008,alien1,TRUE,3,0.944014168,26,0,0.536221092,x,0.4504,0,65,65,65,1,0.536221092,0.322265245,0.411973809,0.252225673,FALSE,,,,,,,,,,,,,,,,,,,,,,,,,,,,,,,,,
GOSH_A5,2023-11-09_13h21.50.765,two_step_task_legacy,2022.2.4,Win32,59.34365913,32,learning,0,resources/alien1_norm.png,0.481776625,resources/alien2_norm.png,0.29380361,TRUE,TRUE,3,0.462416381,red,m,0.5175,alien2,TRUE,2,0.112240864,27,1,0.29380361,m,0.3876,0,66,66,66,1,0.481776625,0.29380361,0.400940636,0.314647835,FALSE,,,,,,,,,,,,,,,,,,,,,,,,,,,,,,,,,
GOSH_A5,2023-11-09_13h21.50.765,two_step_task_legacy,2022.2.4,Win32,59.34365913,32,learning,0,resources/alien2_norm.png,0.329519782,resources/alien1_norm.png,0.488125242,TRUE,TRUE,3,0.4199152,red,m,0.3432,alien2,TRUE,2,0.236914908,28,1,0.329519782,x,0.4665,0,67,67,67,1,0.488125242,0.329519782,0.414957261,0.315169276,TRUE,,,,,,,,,,,,,,,,,,,,,,,,,,,,,,,,,
GOSH_A5,2023-11-09_13h21.50.765,two_step_task_legacy,2022.2.4,Win32,59.34365913,32,learning,0,resources/alien2_norm.png,0.300885739,resources/alien1_norm.png,0.541427607,TRUE,TRUE,3,0.683209297,red,m,0.2873,alien2,TRUE,3,0.978298117,28,0,0.300885739,x,0.478,0,68,68,68,1,0.541427607,0.300885739,0.44505351,0.330896545,TRUE,,,,,,,,,,,,,,,,,,,,,,,,,,,,,,,,,
GOSH_A5,2023-11-09_13h21.50.765,two_step_task_legacy,2022.2.4,Win32,59.34365913,32,learning,1,resources/alien3_norm.png,0.449474267,resources/alien4_norm.png,0.354145584,TRUE,TRUE,2,0.914535015,purple,m,0.283,alien4,TRUE,3,0.968072403,28,0,0.354145584,m,1.0843,0,69,69,69,1,0.533882143,0.290887465,0.449474267,0.354145584,FALSE,,,,,,,,,,,,,,,,,,,,,,,,,,,,,,,,,
GOSH_A5,2023-11-09_13h21.50.765,two_step_task_legacy,2022.2.4,Win32,59.34365913,32,learning,0,resources/alien2_norm.png,0.302664213,resources/alien1_norm.png,0.559255734,TRUE,TRUE,3,0.320350565,red,m,0.2917,alien2,TRUE,2,0.257348644,29,1,0.302664213,x,0.2825,0,70,70,70,1,0.559255734,0.302664213,0.456770851,0.350719962,TRUE,,,,,,,,,,,,,,,,,,,,,,,,,,,,,,,,,
GOSH_A5,2023-11-09_13h21.50.765,two_step_task_legacy,2022.2.4,Win32,59.34365913,32,learning,0,resources/alien2_norm.png,0.312228833,resources/alien1_norm.png,0.591020595,TRUE,TRUE,3,0.325203091,red,m,0.2812,alien2,TRUE,3,0.726735074,29,0,0.312228833,x,0.3498,0,71,71,71,1,0.591020595,0.312228833,0.436127673,0.33450298,TRUE,,,,,,,,,,,,,,,,,,,,,,,,,,,,,,,,,
GOSH_A5,2023-11-09_13h21.50.765,two_step_task_legacy,2022.2.4,Win32,59.34365913,32,learning,0,resources/alien2_norm.png,0.287034498,resources/alien1_norm.png,0.594700632,TRUE,TRUE,3,0.429522934,red,m,0.2508,alien2,TRUE,3,0.460644321,29,0,0.287034498,x,0.4223,0,72,72,72,1,0.594700632,0.287034498,0.448742333,0.387594367,TRUE,,,,,,,,,,,,,,,,,,,,,,,,,,,,,,,,,
GOSH_A5,2023-11-09_13h21.50.765,two_step_task_legacy,2022.2.4,Win32,59.34365913,32,learning,0,resources/alien2_norm.png,0.273630571,resources/alien1_norm.png,0.574048882,TRUE,TRUE,3,0.422922665,red,m,0.2779,alien2,TRUE,3,0.468271307,29,0,0.273630571,x,0.5174,0,73,73,73,1,0.574048882,0.273630571,0.45204078,0.365147156,TRUE,,,,,,,,,,,,,,,,,,,,,,,,,,,,,,,,,
GOSH_A5,2023-11-09_13h21.50.765,two_step_task_legacy,2022.2.4,Win32,59.34365913,32,learning,0,resources/alien2_norm.png,0.290909549,resources/alien1_norm.png,0.552605568,TRUE,TRUE,3,0.078586109,red,m,0.2884,alien1,TRUE,2,0.397622111,30,1,0.552605568,m,0.3041,0,74,74,74,1,0.552605568,0.290909549,0.449524946,0.353912716,TRUE,,,,,,,,,,,,,,,,,,,,,,,,,,,,,,,,,
GOSH_A5,2023-11-09_13h21.50.765,two_step_task_legacy,2022.2.4,Win32,59.34365913,32,learning,0,resources/alien2_norm.png,0.314621574,resources/alien1_norm.png,0.550607225,TRUE,TRUE,3,0.427360429,red,m,0.2723,alien1,TRUE,2,0.208195477,31,1,0.550607225,m,0.321,0,75,75,75,1,0.550607225,0.314621574,0.432600501,0.34362545,TRUE,,,,,,,,,,,,,,,,,,,,,,,,,,,,,,,,,
GOSH_A5,2023-11-09_13h21.50.765,two_step_task_legacy,2022.2.4,Win32,59.34365913,32,learning,0,resources/alien2_norm.png,0.300092266,resources/alien1_norm.png,0.612764323,TRUE,TRUE,3,0.5651556,red,m,0.2791,alien1,TRUE,3,0.72706081,31,0,0.612764323,m,0.3677,0,76,76,76,1,0.612764323,0.300092266,0.490582508,0.398436323,TRUE,,,,,,,,,,,,,,,,,,,,,,,,,,,,,,,,,
GOSH_A5,2023-11-09_13h21.50.765,two_step_task_legacy,2022.2.4,Win32,59.34365913,32,learning,0,resources/alien1_norm.png,0.587251873,resources/alien2_norm.png,0.278549358,TRUE,TRUE,3,0.269351534,red,m,0.2867,alien1,TRUE,2,0.209724283,32,1,0.587251873,x,0.2662,0,77,77,77,1,0.587251873,0.278549358,0.492353439,0.398407271,FALSE,,,,,,,,,,,,,,,,,,,,,,,,,,,,,,,,,
GOSH_A5,2023-11-09_13h21.50.765,two_step_task_legacy,2022.2.4,Win32,59.34365913,32,learning,1,resources/alien4_norm.png,0.399018819,resources/alien3_norm.png,0.541074618,TRUE,TRUE,2,0.991826361,purple,m,0.2646,alien4,TRUE,2,0.216493368,33,1,0.399018819,x,0.8011,0,78,78,78,1,0.557449326,0.318845118,0.541074618,0.399018819,TRUE,,,,,,,,,,,,,,,,,,,,,,,,,,,,,,,,,
GOSH_A5,2023-11-09_13h21.50.765,two_step_task_legacy,2022.2.4,Win32,59.34365913,32,learning,0,resources/alien2_norm.png,0.312851037,resources/alien1_norm.png,0.53420459,TRUE,TRUE,3,0.443630067,red,m,0.2841,alien2,TRUE,3,0.900250033,33,0,0.312851037,x,0.344,0,79,79,79,1,0.53420459,0.312851037,0.557363459,0.416277847,TRUE,,,,,,,,,,,,,,,,,,,,,,,,,,,,,,,,,
GOSH_A5,2023-11-09_13h21.50.765,two_step_task_legacy,2022.2.4,Win32,59.34365913,32,learning,0,resources/alien1_norm.png,0.511426408,resources/alien2_norm.png,0.297986444,TRUE,TRUE,3,0.375087973,red,m,0.3553,alien2,TRUE,3,0.802404558,33,0,0.297986444,m,0.2096,0,80,80,80,1,0.511426408,0.297986444,0.526107178,0.407522818,FALSE,,,,,,,,,,,,,,,,,,,,,,,,,,,,,,,,,
GOSH_A5,2023-11-09_13h21.50.765,two_step_task_legacy,2022.2.4,Win32,59.34365913,32,learning,0,resources/alien1_norm.png,0.544471121,resources/alien2_norm.png,0.274865796,TRUE,TRUE,3,0.334500548,red,m,0.1846,alien1,TRUE,2,0.256184441,34,1,0.544471121,x,0.347,0,81,81,81,1,0.544471121,0.274865796,0.527480151,0.407521571,FALSE,,,,,,,,,,,,,,,,,,,,,,,,,,,,,,,,,
GOSH_A5,2023-11-09_13h21.50.765,two_step_task_legacy,2022.2.4,Win32,59.34365913,32,learning,0,resources/alien2_norm.png,0.291138489,resources/alien1_norm.png,0.519319193,TRUE,TRUE,3,0.620914166,red,m,0.3054,alien1,TRUE,2,0.043206075,35,1,0.519319193,m,0.4834,0,82,82,82,1,0.519319193,0.291138489,0.551089596,0.401095167,TRUE,,,,,,,,,,,,,,,,,,,,,,,,,,,,,,,,,
GOSH_A5,2023-11-09_13h21.50.765,two_step_task_legacy,2022.2.4,Win32,59.34365913,32,learning,1,resources/alien3_norm.png,0.524023759,resources/alien4_norm.png,0.392918668,TRUE,TRUE,2,0.751459519,purple,m,0.311,alien3,TRUE,3,0.62667196,35,0,0.524023759,x,1.035,0,83,83,83,1,0.517664442,0.274829592,0.524023759,0.392918668,FALSE,,,,,,,,,,,,,,,,,,,,,,,,,,,,,,,,,
GOSH_A5,2023-11-09_13h21.50.765,two_step_task_legacy,2022.2.4,Win32,59.34365913,32,learning,1,resources/alien4_norm.png,0.38112781,resources/alien3_norm.png,0.554344939,TRUE,TRUE,2,0.73612426,purple,m,0.6289,alien3,TRUE,3,0.57492084,35,0,0.554344939,m,0.3272,0,84,84,84,1,0.50709655,0.266925426,0.554344939,0.38112781,TRUE,,,,,,,,,,,,,,,,,,,,,,,,,,,,,,,,,
GOSH_A5,2023-11-09_13h21.50.765,two_step_task_legacy,2022.2.4,Win32,59.34365913,32,learning,1,resources/alien4_norm.png,0.395878674,resources/alien3_norm.png,0.561296543,TRUE,TRUE,2,0.831045626,purple,m,0.4176,alien4,TRUE,3,0.445785667,35,0,0.395878674,x,0.3341,0,85,85,85,1,0.482095029,0.274678686,0.561296543,0.395878674,TRUE,,,,,,,,,,,,,,,,,,,,,,,,,,,,,,,,,
GOSH_A5,2023-11-09_13h21.50.765,two_step_task_legacy,2022.2.4,Win32,59.34365913,32,learning,0,resources/alien1_norm.png,0.431502757,resources/alien2_norm.png,0.331137536,TRUE,TRUE,3,0.19730706,red,m,0.4508,alien1,TRUE,3,0.841541719,35,0,0.431502757,x,1.0394,0,86,86,86,1,0.431502757,0.331137536,0.55285745,0.340142532,FALSE,,,,,,,,,,,,,,,,,,,,,,,,,,,,,,,,,
GOSH_A5,2023-11-09_13h21.50.765,two_step_task_legacy,2022.2.4,Win32,59.34365913,32,learning,0,resources/alien1_norm.png,0.425694082,resources/alien2_norm.png,0.320477847,TRUE,TRUE,3,0.536713174,red,m,0.8039,alien2,TRUE,3,0.629933238,35,0,0.320477847,m,0.2831,0,87,87,87,1,0.425694082,0.320477847,0.558768815,0.349462751,FALSE,,,,,,,,,,,,,,,,,,,,,,,,,,,,,,,,,
GOSH_A5,2023-11-09_13h21.50.765,two_step_task_legacy,2022.2.4,Win32,59.34365913,32,learning,0,resources/alien3_norm.png,0.559539158,resources/alien4_norm.png,0.367816979,TRUE,TRUE,2,0.310590315,purple,x,0.3743,alien4,TRUE,3,0.391938036,35,0,0.367816979,m,0.3865,0,88,88,88,1,0.423235387,0.319443506,0.559539158,0.367816979,FALSE,,,,,,,,,,,,,,,,,,,,,,,,,,,,,,,,,
GOSH_A5,2023-11-09_13h21.50.765,two_step_task_legacy,2022.2.4,Win32,59.34365913,32,learning,0,resources/alien4_norm.png,0.369930466,resources/alien3_norm.png,0.519440499,TRUE,TRUE,2,0.555899459,purple,x,0.2815,alien4,TRUE,3,0.738127153,35,0,0.369930466,x,0.3833,0,89,89,89,1,0.418674083,0.358569907,0.519440499,0.369930466,TRUE,,,,,,,,,,,,,,,,,,,,,,,,,,,,,,,,,
GOSH_A5,2023-11-09_13h21.50.765,two_step_task_legacy,2022.2.4,Win32,59.34365913,32,learning,1,resources/alien2_norm.png,0.335226703,resources/alien1_norm.png,0.445341618,TRUE,TRUE,3,0.867287984,red,x,0.3212,alien1,TRUE,2,0.228808087,36,1,0.445341618,m,1.1182,0,90,90,90,1,0.445341618,0.335226703,0.520165644,0.361172441,TRUE,,,,,,,,,,,,,,,,,,,,,,,,,,,,,,,,,
GOSH_A5,2023-11-09_13h21.50.765,two_step_task_legacy,2022.2.4,Win32,59.34365913,32,learning,0,resources/alien3_norm.png,0.489104433,resources/alien4_norm.png,0.372597807,TRUE,TRUE,2,0.523030088,purple,x,0.8223,alien3,TRUE,2,0.239647091,37,1,0.489104433,x,0.6941,0,91,91,91,1,0.445029892,0.410956136,0.489104433,0.372597807,FALSE,,,,,,,,,,,,,,,,,,,,,,,,,,,,,,,,,
GOSH_A5,2023-11-09_13h21.50.765,two_step_task_legacy,2022.2.4,Win32,59.34365913,32,learning,0,resources/alien3_norm.png,0.497118821,resources/alien4_norm.png,0.385293245,TRUE,TRUE,2,0.21317274,purple,x,0.2627,alien3,TRUE,2,0.104150542,38,1,0.497118821,x,0.5,0,92,92,92,1,0.468728915,0.429483789,0.497118821,0.385293245,FALSE,,,,,,,,,,,,,,,,,,,,,,,,,,,,,,,,,
GOSH_A5,2023-11-09_13h21.50.765,two_step_task_legacy,2022.2.4,Win32,59.34365913,32,learning,0,resources/alien3_norm.png,0.528385794,resources/alien4_norm.png,0.37549589,TRUE,TRUE,2,0.411598476,purple,x,0.2793,alien3,TRUE,3,0.595035067,38,0,0.528385794,x,0.4369,0,93,93,93,1,0.475258006,0.418398241,0.528385794,0.37549589,FALSE,,,,,,,,,,,,,,,,,,,,,,,,,,,,,,,,,
GOSH_A5,2023-11-09_13h21.50.765,two_step_task_legacy,2022.2.4,Win32,59.34365913,32,learning,0,resources/alien3_norm.png,0.521484087,resources/alien4_norm.png,0.379394416,TRUE,TRUE,2,0.204118224,purple,x,0.273,alien3,TRUE,3,0.76435142,38,0,0.521484087,x,0.4491,0,94,94,94,1,0.512911999,0.429513936,0.521484087,0.379394416,FALSE,,,,,,,,,,,,,,,,,,,,,,,,,,,,,,,,,
GOSH_A5,2023-11-09_13h21.50.765,two_step_task_legacy,2022.2.4,Win32,59.34365913,32,learning,0,resources/alien3_norm.png,0.527224749,resources/alien4_norm.png,0.348527437,TRUE,TRUE,2,0.206801625,purple,x,0.1292,alien3,TRUE,2,0.206299396,39,1,0.527224749,x,0.3039,0,95,95,95,1,0.539517334,0.389427504,0.527224749,0.348527437,FALSE,,,,,,,,,,,,,,,,,,,,,,,,,,,,,,,,,
GOSH_A5,2023-11-09_13h21.50.765,two_step_task_legacy,2022.2.4,Win32,59.34365913,32,learning,0,resources/alien4_norm.png,0.310275624,resources/alien3_norm.png,0.533450367,TRUE,TRUE,2,0.552171625,purple,x,0.6232,alien4,TRUE,3,0.545566324,39,0,0.310275624,x,0.387,0,96,96,96,1,0.544323322,0.396279259,0.533450367,0.310275624,TRUE,,,,,,,,,,,,,,,,,,,,,,,,,,,,,,,,,
GOSH_A5,2023-11-09_13h21.50.765,two_step_task_legacy,2022.2.4,Win32,59.34365913,32,learning,0,resources/alien3_norm.png,0.562805675,resources/alien4_norm.png,0.328075738,TRUE,TRUE,2,0.227708249,purple,x,0.3499,alien3,TRUE,2,0.27835464,40,1,0.562805675,x,0.622,0,97,97,97,1,0.566216556,0.408374636,0.562805675,0.328075738,FALSE,,,,,,,,,,,,,,,,,,,,,,,,,,,,,,,,,
GOSH_A5,2023-11-09_13h21.50.765,two_step_task_legacy,2022.2.4,Win32,59.34365913,32,learning,0,resources/alien3_norm.png,0.520753086,resources/alien4_norm.png,0.341376023,TRUE,TRUE,2,0.270163205,purple,x,0.3446,alien3,TRUE,3,0.804979777,40,0,0.520753086,x,0.604,0,98,98,98,1,0.570274998,0.412026002,0.520753086,0.341376023,FALSE,,,,,,,,,,,,,,,,,,,,,,,,,,,,,,,,,
GOSH_A5,2023-11-09_13h21.50.765,two_step_task_legacy,2022.2.4,Win32,59.34365913,32,learning,0,resources/alien3_norm.png,0.54429023,resources/alien4_norm.png,0.334840865,TRUE,TRUE,2,0.248725141,purple,x,0.3572,alien3,TRUE,3,0.893976341,40,0,0.54429023,x,0.7882,0,99,99,99,1,0.566895624,0.399144843,0.54429023,0.334840865,FALSE,,,,,,,,,,,,,,,,,,,,,,,,,,,,,,,,,
GOSH_A5,2023-11-09_13h21.50.765,two_step_task_legacy,2022.2.4,Win32,59.34365913,32,learning,0,resources/alien3_norm.png,0.536613682,resources/alien4_norm.png,0.311110319,TRUE,TRUE,2,0.167172306,purple,x,0.4178,alien3,TRUE,2,0.506957807,41,1,0.536613682,x,0.6375,0,100,100,100,1,0.562314943,0.424889032,0.536613682,0.311110319,FALSE,,,,,,,,,,,,,,,,,,,,,,,,,,,,,,,,,
GOSH_A5,2023-11-09_13h21.50.765,two_step_task_legacy,2022.2.4,Win32,59.34365913,32,learning,1,resources/alien1_norm.png,0.524140525,resources/alien2_norm.png,0.413216171,TRUE,TRUE,3,0.899435556,red,x,0.3406,alien2,TRUE,3,0.895714582,41,0,0.413216171,m,1.383,0,101,101,101,1,0.524140525,0.413216171,0.520983923,0.316353152,FALSE,,,,,,,,,,,,,,,,,,,,,,,,,,,,,,,,,
GOSH_A5,2023-11-09_13h21.50.765,two_step_task_legacy,2022.2.4,Win32,59.34365913,32,learning,0,resources/alien3_norm.png,0.500332353,resources/alien4_norm.png,0.315070893,TRUE,TRUE,2,0.608699512,purple,x,0.8714,alien3,TRUE,2,0.177812377,42,1,0.500332353,x,0.7535,0,102,102,102,1,0.531718216,0.41264003,0.500332353,0.315070893,FALSE,,,,,,,,,,,,,,,,,,,,,,,,,,,,,,,,,
GOSH_A5,2023-11-09_13h21.50.765,two_step_task_legacy,2022.2.4,Win32,59.34365913,32,learning,0,resources/alien3_norm.png,0.505772512,resources/alien4_norm.png,0.319951423,TRUE,TRUE,2,0.625762473,purple,x,0.2852,alien3,TRUE,3,0.593220842,42,0,0.505772512,x,0.5021,0,103,103,103,1,0.515214637,0.414336669,0.505772512,0.319951423,FALSE,,,,,,,,,,,,,,,,,,,,,,,,,,,,,,,,,
GOSH_A5,2023-11-09_13h21.50.765,two_step_task_legacy,2022.2.4,Win32,59.34365913,32,learning,1,resources/alien2_norm.png,0.388359403,resources/alien1_norm.png,0.501395054,TRUE,TRUE,3,0.924379212,red,x,0.3614,alien1,TRUE,2,6.753E-05,43,1,0.501395054,m,0.7237,0,104,104,104,1,0.501395054,0.388359403,0.474256044,0.34789239,TRUE,,,,,,,,,,,,,,,,,,,,,,,,,,,,,,,,,
GOSH_A5,2023-11-09_13h21.50.765,two_step_task_legacy,2022.2.4,Win32,59.34365913,32,learning,1,resources/alien3_norm.png,0.482628218,resources/alien4_norm.png,0.369110125,TRUE,TRUE,2,0.881843335,purple,m,0.6044,alien3,TRUE,2,0.034363259,44,1,0.482628218,x,0.8255,0,105,105,105,1,0.535437416,0.376983664,0.482628218,0.369110125,FALSE,,,,,,,,,,,,,,,,,,,,,,,,,,,,,,,,,
GOSH_A5,2023-11-09_13h21.50.765,two_step_task_legacy,2022.2.4,Win32,59.34365913,32,learning,1,resources/alien3_norm.png,0.461077677,resources/alien4_norm.png,0.38101395,TRUE,TRUE,2,0.850296043,purple,m,0.8844,alien3,TRUE,3,0.596029912,44,0,0.461077677,x,0.5543,0,106,106,106,1,0.538694532,0.372391436,0.461077677,0.38101395,FALSE,,,,,,,,,,,,,,,,,,,,,,,,,,,,,,,,,
GOSH_A5,2023-11-09_13h21.50.765,two_step_task_legacy,2022.2.4,Win32,59.34365913,32,learning,0,resources/alien2_norm.png,0.364053666,resources/alien1_norm.png,0.574921964,TRUE,TRUE,3,0.613265975,red,m,0.3968,alien2,TRUE,2,0.10185565,45,1,0.364053666,x,0.7392,0,107,107,107,1,0.574921964,0.364053666,0.449785692,0.37123011,TRUE,,,,,,,,,,,,,,,,,,,,,,,,,,,,,,,,,
GOSH_A5,2023-11-09_13h21.50.765,two_step_task_legacy,2022.2.4,Win32,59.34365913,32,learning,0,resources/alien3_norm.png,0.508032371,resources/alien4_norm.png,0.404530221,TRUE,TRUE,2,0.014343562,purple,x,0.9211,alien3,TRUE,3,0.877657649,45,0,0.508032371,x,0.8763,0,108,108,108,1,0.579335317,0.344268264,0.508032371,0.404530221,FALSE,,,,,,,,,,,,,,,,,,,,,,,,,,,,,,,,,
GOSH_A5,2023-11-09_13h21.50.765,two_step_task_legacy,2022.2.4,Win32,59.34365913,32,learning,0,resources/alien2_norm.png,0.336579885,resources/alien1_norm.png,0.537947877,TRUE,TRUE,3,0.230900865,red,m,0.1927,alien2,TRUE,3,0.770921841,45,0,0.336579885,x,0.5093,0,109,109,109,1,0.537947877,0.336579885,0.529669072,0.43595818,TRUE,,,,,,,,,,,,,,,,,,,,,,,,,,,,,,,,,
GOSH_A5,2023-11-09_13h21.50.765,two_step_task_legacy,2022.2.4,Win32,59.34365913,32,learning,1,resources/alien3_norm.png,0.466519079,resources/alien4_norm.png,0.463961387,TRUE,TRUE,2,0.848017949,purple,m,0.5607,alien4,TRUE,3,0.728709895,45,0,0.463961387,m,1.3075,0,110,110,110,1,0.545291717,0.357778041,0.466519079,0.463961387,FALSE,,,,,,,,,,,,,,,,,,,,,,,,,,,,,,,,,
GOSH_A5,2023-11-09_13h21.50.765,two_step_task_legacy,2022.2.4,Win32,59.34365913,32,learning,0,resources/alien1_norm.png,0.563154971,resources/alien2_norm.png,0.323993397,TRUE,TRUE,3,0.356720593,red,m,0.715,alien2,TRUE,3,0.810179136,45,0,0.323993397,m,0.8878,0,111,111,111,1,0.563154971,0.323993397,0.481244805,0.469580664,FALSE,,,,,,,,,,,,,,,,,,,,,,,,,,,,,,,,,
GOSH_A5,2023-11-09_13h21.50.765,two_step_task_legacy,2022.2.4,Win32,59.34365913,32,learning,1,resources/alien4_norm.png,0.444113532,resources/alien3_norm.png,0.484575242,TRUE,TRUE,2,0.792507693,purple,m,0.4401,alien4,TRUE,2,0.219495325,46,1,0.444113532,x,1.006,0,112,112,112,1,0.564024248,0.343947487,0.484575242,0.444113532,TRUE,,,,,,,,,,,,,,,,,,,,,,,,,,,,,,,,,
GOSH_A5,2023-11-09_13h21.50.765,two_step_task_legacy,2022.2.4,Win32,59.34365913,32,learning,1,resources/alien4_norm.png,0.431112029,resources/alien3_norm.png,0.485075938,TRUE,TRUE,2,0.764869713,purple,m,0.4394,alien3,TRUE,2,0.081174723,47,1,0.485075938,m,1.1504,0,113,113,113,1,0.614090142,0.319841751,0.485075938,0.431112029,TRUE,,,,,,,,,,,,,,,,,,,,,,,,,,,,,,,,,
GOSH_A5,2023-11-09_13h21.50.765,two_step_task_legacy,2022.2.4,Win32,59.34365913,32,learning,0,resources/alien2_norm.png,0.344321909,resources/alien1_norm.png,0.634874305,TRUE,TRUE,3,0.302815628,red,m,0.3261,alien1,TRUE,3,0.928856099,47,0,0.634874305,m,1.184,0,114,114,114,1,0.634874305,0.344321909,0.498414866,0.46002207,TRUE,,,,,,,,,,,,,,,,,,,,,,,,,,,,,,,,,
GOSH_A5,2023-11-09_13h21.50.765,two_step_task_legacy,2022.2.4,Win32,59.34365913,32,learning,0,resources/alien1_norm.png,0.63430206,resources/alien2_norm.png,0.350871794,TRUE,TRUE,3,0.552782318,red,m,0.3013,alien2,TRUE,3,0.74460195,47,0,0.350871794,m,0.7017,0,115,115,115,1,0.63430206,0.350871794,0.50555614,0.50377738,FALSE,,,,,,,,,,,,,,,,,,,,,,,,,,,,,,,,,
GOSH_A5,2023-11-09_13h21.50.765,two_step_task_legacy,2022.2.4,Win32,59.34365913,32,learning,0,resources/alien2_norm.png,0.322684488,resources/alien1_norm.png,0.667644008,TRUE,TRUE,3,0.003129506,red,m,0.279,alien2,TRUE,3,0.397412403,47,0,0.322684488,x,0.8541,0,116,116,116,1,0.667644008,0.322684488,0.513032791,0.495022894,TRUE,,,,,,,,,,,,,,,,,,,,,,,,,,,,,,,,,
GOSH_A5,2023-11-09_13h21.50.765,two_step_task_legacy,2022.2.4,Win32,59.34365913,32,learning,0,resources/alien2_norm.png,0.309985121,resources/alien1_norm.png,0.707070434,TRUE,TRUE,3,0.285939118,red,m,0.3395,alien1,TRUE,2,0.471448341,48,1,0.707070434,m,0.3777,0,117,117,117,1,0.707070434,0.309985121,0.512195794,0.487973293,TRUE,,,,,,,,,,,,,,,,,,,,,,,,,,,,,,,,,
GOSH_A5,2023-11-09_13h21.50.765,two_step_task_legacy,2022.2.4,Win32,59.34365913,32,learning,1,resources/alien4_norm.png,0.496819543,resources/alien3_norm.png,0.532785457,TRUE,TRUE,2,0.701469124,purple,m,0.4419,alien3,TRUE,2,0.269295163,49,1,0.532785457,m,0.6059,0,118,118,118,1,0.689531897,0.361280529,0.532785457,0.496819543,TRUE,,,,,,,,,,,,,,,,,,,,,,,,,,,,,,,,,
GOSH_A5,2023-11-09_13h21.50.765,two_step_task_legacy,2022.2.4,Win32,59.34365913,32,learning,0,resources/alien2_norm.png,0.368092264,resources/alien1_norm.png,0.701247287,TRUE,TRUE,3,0.15161977,red,m,0.304,alien2,TRUE,2,0.300754927,50,1,0.368092264,x,0.8003,0,119,119,119,1,0.701247287,0.368092264,0.539732256,0.469358927,TRUE,,,,,,,,,,,,,,,,,,,,,,,,,,,,,,,,,
GOSH_A5,2023-11-09_13h21.50.765,two_step_task_legacy,2022.2.4,Win32,59.34365913,32,learning,1,resources/alien3_norm.png,0.566186762,resources/alien4_norm.png,0.434884628,TRUE,TRUE,2,0.818817107,purple,m,0.3244,alien3,TRUE,2,0.437139505,51,1,0.566186762,x,0.8464,0,120,120,120,1,0.726052512,0.347461792,0.566186762,0.434884628,FALSE,,,,,,,,,,,,,,,,,,,,,,,,,,,,,,,,,
GOSH_A5,2023-11-09_13h21.50.765,two_step_task_legacy,2022.2.4,Win32,59.34365913,32,learning,0,resources/alien2_norm.png,0.396484292,resources/alien1_norm.png,0.738030072,TRUE,TRUE,3,0.081481059,red,m,0.3505,alien2,TRUE,2,0.220768006,52,1,0.396484292,x,0.9779,0,121,121,121,1,0.738030072,0.396484292,0.596382899,0.439827083,TRUE,,,,,,,,,,,,,,,,,,,,,,,,,,,,,,,,,
GOSH_A5,2023-11-09_13h21.50.765,two_step_task_legacy,2022.2.4,Win32,59.34365913,32,learning,0,resources/alien1_norm.png,0.72810507,resources/alien2_norm.png,0.423288174,TRUE,TRUE,3,0.012116335,red,m,0.2888,alien2,TRUE,3,0.590887865,52,0,0.423288174,m,1.0231,0,122,122,122,1,0.72810507,0.423288174,0.593281654,0.415803237,FALSE,,,,,,,,,,,,,,,,,,,,,,,,,,,,,,,,,
GOSH_A5,2023-11-09_13h21.50.765,two_step_task_legacy,2022.2.4,Win32,59.34365913,32,learning,0,resources/alien2_norm.png,0.428141262,resources/alien1_norm.png,0.685307875,TRUE,TRUE,3,0.53547193,red,m,0.2331,alien2,TRUE,3,0.706023773,52,0,0.428141262,x,0.5337,0,123,123,123,1,0.685307875,0.428141262,0.614271373,0.469262118,TRUE,,,,,,,,,,,,,,,,,,,,,,,,,,,,,,,,,
GOSH_A5,2023-11-09_13h21.50.765,two_step_task_legacy,2022.2.4,Win32,59.34365913,32,learning,1,resources/alien4_norm.png,0.457012985,resources/alien3_norm.png,0.595787295,TRUE,TRUE,2,0.746940554,purple,m,0.0675,alien3,TRUE,3,0.735298242,52,0,0.595787295,m,0.322,0,124,124,124,1,0.677719855,0.443149426,0.595787295,0.457012985,TRUE,,,,,,,,,,,,,,,,,,,,,,,,,,,,,,,,,
GOSH_A5,2023-11-09_13h21.50.765,two_step_task_legacy,2022.2.4,Win32,59.34365913,32,learning,1,resources/alien3_norm.png,0.609400518,resources/alien4_norm.png,0.454510665,TRUE,TRUE,2,0.760852189,purple,m,0.4562,alien3,TRUE,2,0.55146491,53,1,0.609400518,x,0.4169,0,125,125,125,1,0.656710467,0.465350228,0.609400518,0.454510665,FALSE,,,,,,,,,,,,,,,,,,,,,,,,,,,,,,,,,
GOSH_A5,2023-11-09_13h21.50.765,two_step_task_legacy,2022.2.4,Win32,59.34365913,32,learning,0,resources/alien1_norm.png,0.658772828,resources/alien2_norm.png,0.513675801,TRUE,TRUE,3,0.094446581,red,m,0.323,alien1,TRUE,2,0.382859822,54,1,0.658772828,x,1.7803,0,126,126,126,1,0.658772828,0.513675801,0.654267489,0.465484818,FALSE,,,,,,,,,,,,,,,,,,,,,,,,,,,,,,,,,
GOSH_A5,2023-11-09_13h21.50.765,two_step_task_legacy,2022.2.4,Win32,59.34365913,32,learning,0,,,,,FALSE,FALSE,2,0.578482858,red,,,,,,,,,,,,0,127,127,127,1,0.640716477,0.44903852,0.649584213,0.482157085,FALSE,,,,,,,,,,,,,,,,,,,,,,,,,,,,,,,,,
GOSH_A5,2023-11-09_13h21.50.765,two_step_task_legacy,2022.2.4,Win32,59.34365913,32,learning,0,resources/alien2_norm.png,0.478184618,resources/alien1_norm.png,0.635324725,TRUE,TRUE,3,0.201018425,red,m,0.8543,alien2,TRUE,2,0.283675304,55,1,0.478184618,x,0.7668,0,128,128,128,1,0.635324725,0.478184618,0.646962345,0.510855905,TRUE,,,,,,,,,,,,,,,,,,,,,,,,,,,,,,,,,
GOSH_A5,2023-11-09_13h21.50.765,two_step_task_legacy,2022.2.4,Win32,59.34365913,32,learning,1,resources/alien3_norm.png,0.653055224,resources/alien4_norm.png,0.489978701,TRUE,TRUE,2,0.976859565,purple,m,0.3243,alien4,TRUE,3,0.964753779,55,0,0.489978701,m,0.9603,0,129,129,129,1,0.655436374,0.460769008,0.653055224,0.489978701,FALSE,,,,,,,,,,,,,,,,,,,,,,,,,,,,,,,,,
GOSH_A5,2023-11-09_13h21.50.765,two_step_task_legacy,2022.2.4,Win32,59.34365913,32,learning,0,resources/alien2_norm.png,0.453479399,resources/alien1_norm.png,0.61995362,TRUE,TRUE,3,0.432945655,red,m,0.4573,alien2,TRUE,3,0.860497983,55,0,0.453479399,x,0.4887,0,130,130,130,1,0.61995362,0.453479399,0.613362747,0.485033424,TRUE,,,,,,,,,,,,,,,,,,,,,,,,,,,,,,,,,
GOSH_A5,2023-11-09_13h21.50.765,two_step_task_legacy,2022.2.4,Win32,59.34365913,32,learning,0,resources/alien2_norm.png,0.441274551,resources/alien1_norm.png,0.655513018,TRUE,TRUE,3,0.503255629,red,m,0.3253,alien2,TRUE,2,0.330142144,56,1,0.441274551,x,0.4084,0,131,131,131,1,0.655513018,0.441274551,0.618264084,0.489467803,TRUE,,,,,,,,,,,,,,,,,,,,,,,,,,,,,,,,,
GOSH_A5,2023-11-09_13h21.50.765,two_step_task_legacy,2022.2.4,Win32,59.34365913,32,learning,0,resources/alien2_norm.png,0.41905929,resources/alien1_norm.png,0.660323481,TRUE,TRUE,3,0.063893529,red,m,0.3842,alien2,TRUE,2,0.368360174,57,1,0.41905929,x,0.3929,0,132,132,132,1,0.660323481,0.41905929,0.653320808,0.508589034,TRUE,,,,,,,,,,,,,,,,,,,,,,,,,,,,,,,,,
GOSH_A5,2023-11-09_13h21.50.765,two_step_task_legacy,2022.2.4,Win32,59.34365913,32,learning,0,resources/alien1_norm.png,0.686863024,resources/alien2_norm.png,0.36029786,TRUE,TRUE,3,0.565701708,red,m,0.2958,alien1,TRUE,2,0.673573063,58,1,0.686863024,x,0.3531,0,133,133,133,1,0.686863024,0.36029786,0.634618889,0.523979081,FALSE,,,,,,,,,,,,,,,,,,,,,,,,,,,,,,,,,
GOSH_A5,2023-11-09_13h21.50.765,two_step_task_legacy,2022.2.4,Win32,59.34365913,32,learning,0,resources/alien2_norm.png,0.358149581,resources/alien1_norm.png,0.648257727,TRUE,TRUE,3,0.177241572,red,m,0.372,alien2,TRUE,3,0.845638317,58,0,0.358149581,x,0.4616,0,134,134,134,1,0.648257727,0.358149581,0.653176435,0.561268839,TRUE,,,,,,,,,,,,,,,,,,,,,,,,,,,,,,,,,
GOSH_A5,2023-11-09_13h21.50.765,two_step_task_legacy,2022.2.4,Win32,59.34365913,32,learning,1,resources/alien4_norm.png,0.547455663,resources/alien3_norm.png,0.625661179,TRUE,TRUE,2,0.723155415,purple,m,0.3404,alien4,TRUE,2,0.279315847,59,1,0.547455663,x,0.9174,0,135,135,135,1,0.675484334,0.357335645,0.625661179,0.547455663,TRUE,,,,,,,,,,,,,,,,,,,,,,,,,,,,,,,,,
GOSH_A5,2023-11-09_13h21.50.765,two_step_task_legacy,2022.2.4,Win32,59.34365913,32,learning,0,resources/alien1_norm.png,0.694725982,resources/alien2_norm.png,0.348051174,TRUE,TRUE,3,0.375659301,red,m,0.3016,alien2,TRUE,3,0.72237654,59,0,0.348051174,m,0.7101,0,136,136,136,1,0.694725982,0.348051174,0.597727276,0.553095273,FALSE,,,,,,,,,,,,,,,,,,,,,,,,,,,,,,,,,
GOSH_A5,2023-11-09_13h21.50.765,two_step_task_legacy,2022.2.4,Win32,59.34365913,32,learning,0,resources/alien1_norm.png,0.725078908,resources/alien2_norm.png,0.375888693,TRUE,TRUE,3,0.008211476,red,m,0.2727,alien1,TRUE,2,0.18193526,60,1,0.725078908,x,0.5278,0,137,137,137,1,0.725078908,0.375888693,0.559411518,0.553266507,FALSE,,,,,,,,,,,,,,,,,,,,,,,,,,,,,,,,,
GOSH_A5,2023-11-09_13h21.50.765,two_step_task_legacy,2022.2.4,Win32,59.34365913,32,learning,0,resources/alien1_norm.png,0.697747266,resources/alien2_norm.png,0.34815686,TRUE,TRUE,3,0.420130405,red,m,0.2721,alien1,TRUE,2,0.36784674,61,1,0.697747266,x,0.618,0,138,138,138,1,0.697747266,0.34815686,0.557477541,0.574857827,FALSE,,,,,,,,,,,,,,,,,,,,,,,,,,,,,,,,,
GOSH_A5,2023-11-09_13h21.50.765,two_step_task_legacy,2022.2.4,Win32,59.34365913,32,learning,0,resources/alien1_norm.png,0.719369264,resources/alien2_norm.png,0.348908143,TRUE,TRUE,3,0.442967924,red,m,0.2588,alien1,TRUE,2,0.486745754,62,1,0.719369264,x,0.4395,0,139,139,139,1,0.719369264,0.348908143,0.541784858,0.578979803,FALSE,,,,,,,,,,,,,,,,,,,,,,,,,,,,,,,,,
GOSH_A5,2023-11-09_13h21.50.765,two_step_task_legacy,2022.2.4,Win32,59.34365913,32,learning,1,resources/alien4_norm.png,0.570999634,resources/alien3_norm.png,0.533963393,TRUE,TRUE,2,0.855203729,purple,m,0.2865,alien3,TRUE,2,0.387573096,63,1,0.533963393,m,1.0768,0,140,140,140,1,0.721925325,0.354944319,0.533963393,0.570999634,TRUE,,,,,,,,,,,,,,,,,,,,,,,,,,,,,,,,,
GOSH_A5,2023-11-09_13h21.50.765,two_step_task_legacy,2022.2.4,Win32,59.34365913,32,learning,0,resources/alien2_norm.png,0.373817527,resources/alien1_norm.png,0.713795562,TRUE,TRUE,3,0.389400226,red,m,0.3009,alien1,TRUE,2,0.683948599,64,1,0.713795562,m,0.811,0,141,141,141,1,0.713795562,0.373817527,0.576751304,0.536742171,TRUE,,,,,,,,,,,,,,,,,,,,,,,,,,,,,,,,,
GOSH_A5,2023-11-09_13h21.50.765,two_step_task_legacy,2022.2.4,Win32,59.34365913,32,learning,0,resources/alien2_norm.png,0.394054994,resources/alien1_norm.png,0.740517323,TRUE,TRUE,3,0.190306662,red,m,0.2595,alien1,TRUE,2,0.62046373,65,1,0.740517323,m,0.8609,0,142,142,142,1,0.740517323,0.394054994,0.540791797,0.610349275,TRUE,,,,,,,,,,,,,,,,,,,,,,,,,,,,,,,,,
GOSH_A5,2023-11-09_13h21.50.765,two_step_task_legacy,2022.2.4,Win32,59.34365913,32,learning,0,resources/alien2_norm.png,0.413737064,resources/alien1_norm.png,0.733170537,TRUE,TRUE,3,0.056004003,red,m,0.249,alien1,TRUE,2,0.153471913,66,1,0.733170537,m,0.4672,0,143,143,143,1,0.733170537,0.413737064,0.569468549,0.588139384,TRUE,,,,,,,,,,,,,,,,,,,,,,,,,,,,,,,,,
GOSH_A5,2023-11-09_13h21.50.765,two_step_task_legacy,2022.2.4,Win32,59.34365913,32,learning,0,resources/alien2_norm.png,0.387869739,resources/alien1_norm.png,0.720948192,TRUE,TRUE,3,0.33068019,red,m,0.2104,alien1,TRUE,3,0.79008576,66,0,0.720948192,m,0.351,0,144,144,144,1,0.720948192,0.387869739,0.577054572,0.569967256,TRUE,,,,,,,,,,,,,,,,,,,,,,,,,,,,,,,,,
GOSH_A5,2023-11-09_13h21.50.765,two_step_task_legacy,2022.2.4,Win32,59.34365913,32,learning,0,resources/alien2_norm.png,0.418056912,resources/alien1_norm.png,0.704160764,TRUE,TRUE,3,0.695991656,red,m,0.3001,alien1,TRUE,2,0.236136826,67,1,0.704160764,m,0.4999,0,145,145,145,1,0.704160764,0.418056912,0.53629869,0.552036289,TRUE,,,,,,,,,,,,,,,,,,,,,,,,,,,,,,,,,
GOSH_A5,2023-11-09_13h21.50.765,two_step_task_legacy,2022.2.4,Win32,59.34365913,32,learning,0,resources/alien2_norm.png,0.380814472,resources/alien1_norm.png,0.707264373,TRUE,TRUE,3,0.654702206,red,m,0.279,alien1,TRUE,3,0.750722689,67,0,0.707264373,m,0.413,0,146,146,146,1,0.707264373,0.380814472,0.50086888,0.516810427,TRUE,,,,,,,,,,,,,,,,,,,,,,,,,,,,,,,,,
GOSH_A5,2023-11-09_13h21.50.765,two_step_task_legacy,2022.2.4,Win32,59.34365913,32,learning,1,resources/alien4_norm.png,0.498941854,resources/alien3_norm.png,0.505993031,TRUE,TRUE,2,0.985328866,purple,m,0.2196,alien3,TRUE,3,0.992724867,67,0,0.505993031,m,0.2997,0,147,147,147,1,0.689129267,0.382390844,0.505993031,0.498941854,TRUE,,,,,,,,,,,,,,,,,,,,,,,,,,,,,,,,,
GOSH_A5,2023-11-09_13h21.50.765,two_step_task_legacy,2022.2.4,Win32,59.34365913,32,learning,1,resources/alien3_norm.png,0.430119945,resources/alien4_norm.png,0.532689028,TRUE,TRUE,2,0.976840612,purple,m,0.4505,alien4,TRUE,3,0.865499836,67,0,0.532689028,m,1.1133,0,148,148,148,1,0.721410809,0.313154918,0.430119945,0.532689028,FALSE,,,,,,,,,,,,,,,,,,,,,,,,,,,,,,,,,
GOSH_A5,2023-11-09_13h21.50.765,two_step_task_legacy,2022.2.4,Win32,59.34365913,32,learning,1,resources/alien1_norm.png,0.713441678,resources/alien2_norm.png,0.345847125,TRUE,TRUE,3,0.861132381,red,x,0.195,alien1,TRUE,2,0.488304554,68,1,0.713441678,x,1.0527,0,149,149,149,1,0.713441678,0.345847125,0.421554333,0.543528828,FALSE,,,,,,,,,,,,,,,,,,,,,,,,,,,,,,,,,
GOSH_A5,2023-11-09_13h21.50.765,two_step_task_legacy,2022.2.4,Win32,59.34365913,32,learning,0,resources/alien4_norm.png,0.6,resources/alien3_norm.png,0.4,TRUE,TRUE,2,0.020744996,purple,x,0.2946,alien3,TRUE,3,0.704705929,68,0,0.4,m,1.0394,0,150,150,150,1,0.7,0.3,0.4,0.6,TRUE,,,,,,,,,,,,,,,,,,,,,,,,,,,,,,,,,
GOSH_A5,2023-11-09_13h21.50.765,two_step_task_legacy,2022.2.4,Win32,59.34365913,32,learning,0,resources/alien4_norm.png,0.6,resources/alien3_norm.png,0.4,TRUE,TRUE,2,0.411273819,purple,x,0.271,alien4,TRUE,2,0.043893437,69,1,0.6,x,0.7591,0,151,151,151,1,0.7,0.3,0.4,0.6,TRUE,,,,,,,,,,,,,,,,,,,,,,,,,,,,,,,,,
GOSH_A5,2023-11-09_13h21.50.765,two_step_task_legacy,2022.2.4,Win32,59.34365913,32,learning,0,resources/alien3_norm.png,0.4,resources/alien4_norm.png,0.6,TRUE,TRUE,2,0.619436978,purple,x,0.5402,alien4,TRUE,2,0.127316679,70,1,0.6,m,0.496,0,152,152,152,1,0.7,0.3,0.4,0.6,FALSE,,,,,,,,,,,,,,,,,,,,,,,,,,,,,,,,,
GOSH_A5,2023-11-09_13h21.50.765,two_step_task_legacy,2022.2.4,Win32,59.34365913,32,learning,1,resources/alien1_norm.png,0.7,resources/alien2_norm.png,0.3,TRUE,TRUE,3,0.938776887,red,x,0.2961,alien1,TRUE,2,0.563292057,71,1,0.7,x,1.0611,0,153,153,153,1,0.7,0.3,0.4,0.6,FALSE,,,,,,,,,,,,,,,,,,,,,,,,,,,,,,,,,
GOSH_A5,2023-11-09_13h21.50.765,two_step_task_legacy,2022.2.4,Win32,59.34365913,32,learning,1,resources/alien4_norm.png,0.6,resources/alien3_norm.png,0.4,TRUE,TRUE,2,0.828647459,purple,m,0.5473,alien3,TRUE,3,0.811438745,71,0,0.4,m,1.1059,0,154,154,154,1,0.7,0.3,0.4,0.6,TRUE,,,,,,,,,,,,,,,,,,,,,,,,,,,,,,,,,
GOSH_A5,2023-11-09_13h21.50.765,two_step_task_legacy,2022.2.4,Win32,59.34365913,32,learning,0,resources/alien1_norm.png,0.7,resources/alien2_norm.png,0.3,TRUE,TRUE,3,0.22030081,red,m,0.2875,alien1,TRUE,2,0.144944647,72,1,0.7,x,0.7661,0,155,155,155,1,0.7,0.3,0.4,0.6,FALSE,,,,,,,,,,,,,,,,,,,,,,,,,,,,,,,,,
GOSH_A5,2023-11-09_13h21.50.765,two_step_task_legacy,2022.2.4,Win32,59.34365913,32,learning,0,resources/alien1_norm.png,0.7,resources/alien2_norm.png,0.3,TRUE,TRUE,3,0.162831331,red,m,0.2388,alien1,TRUE,2,0.362207092,73,1,0.7,x,0.5906,0,156,156,156,1,0.7,0.3,0.4,0.6,FALSE,,,,,,,,,,,,,,,,,,,,,,,,,,,,,,,,,
GOSH_A5,2023-11-09_13h21.50.765,two_step_task_legacy,2022.2.4,Win32,59.34365913,32,learning,0,resources/alien1_norm.png,0.7,resources/alien2_norm.png,0.3,TRUE,TRUE,3,0.285124212,red,m,0.2646,alien1,TRUE,3,0.961154805,73,0,0.7,x,0.3921,0,157,157,157,1,0.7,0.3,0.4,0.6,FALSE,,,,,,,,,,,,,,,,,,,,,,,,,,,,,,,,,
GOSH_A5,2023-11-09_13h21.50.765,two_step_task_legacy,2022.2.4,Win32,59.34365913,32,learning,1,resources/alien4_norm.png,0.6,resources/alien3_norm.png,0.4,TRUE,TRUE,2,0.9995251,purple,m,0.2959,alien4,TRUE,3,0.661003665,73,0,0.6,x,0.9696,0,158,158,158,1,0.7,0.3,0.4,0.6,TRUE,,,,,,,,,,,,,,,,,,,,,,,,,,,,,,,,,
GOSH_A5,2023-11-09_13h21.50.765,two_step_task_legacy,2022.2.4,Win32,59.34365913,32,learning,0,resources/alien2_norm.png,0.3,resources/alien1_norm.png,0.7,TRUE,TRUE,3,0.59255454,red,m,0.3537,alien1,TRUE,3,0.759851096,73,0,0.7,m,0.3244,0,159,159,159,1,0.7,0.3,0.4,0.6,TRUE,,,,,,,,,,,,,,,,,,,,,,,,,,,,,,,,,
GOSH_A5,2023-11-09_13h21.50.765,two_step_task_legacy,2022.2.4,Win32,59.34365913,32,learning,0,resources/alien2_norm.png,0.3,resources/alien1_norm.png,0.7,TRUE,TRUE,3,0.000654141,red,m,0.0828,alien2,TRUE,3,0.527636559,73,0,0.3,x,0.2368,0,160,160,160,1,0.7,0.3,0.4,0.6,TRUE,,,,,,,,,,,,,,,,,,,,,,,,,,,,,,,,,
GOSH_A5,2023-11-09_13h21.50.765,two_step_task_legacy,2022.2.4,Win32,59.34365913,32,learning,0,resources/alien2_norm.png,0.3,resources/alien1_norm.png,0.7,TRUE,TRUE,3,0.143853493,red,m,0.4169,alien1,TRUE,2,0.321352594,74,1,0.7,m,0.3025,0,161,161,161,1,0.7,0.3,0.4,0.6,TRUE,,,,,,,,,,,,,,,,,,,,,,,,,,,,,,,,,
GOSH_A5,2023-11-09_13h21.50.765,two_step_task_legacy,2022.2.4,Win32,59.34365913,32,learning,0,resources/alien2_norm.png,0.3,resources/alien1_norm.png,0.7,TRUE,TRUE,3,0.637821536,red,m,0.3392,alien1,TRUE,3,0.847266813,74,0,0.7,m,0.3492,0,162,162,162,1,0.7,0.3,0.4,0.6,TRUE,,,,,,,,,,,,,,,,,,,,,,,,,,,,,,,,,
GOSH_A5,2023-11-09_13h21.50.765,two_step_task_legacy,2022.2.4,Win32,59.34365913,32,learning,0,resources/alien1_norm.png,0.7,resources/alien2_norm.png,0.3,TRUE,TRUE,3,0.648699268,red,m,0.7172,alien1,TRUE,2,0.500803232,75,1,0.7,x,0.5606,0,163,163,163,1,0.7,0.3,0.4,0.6,FALSE,,,,,,,,,,,,,,,,,,,,,,,,,,,,,,,,,
GOSH_A5,2023-11-09_13h21.50.765,two_step_task_legacy,2022.2.4,Win32,59.34365913,32,learning,0,resources/alien2_norm.png,0.3,resources/alien1_norm.png,0.7,TRUE,TRUE,3,0.338195496,red,m,0.272,alien1,TRUE,2,0.399142705,76,1,0.7,m,0.6047,0,164,164,164,1,0.7,0.3,0.4,0.6,TRUE,,,,,,,,,,,,,,,,,,,,,,,,,,,,,,,,,
GOSH_A5,2023-11-09_13h21.50.765,two_step_task_legacy,2022.2.4,Win32,59.34365913,32,learning,0,resources/alien2_norm.png,0.3,resources/alien1_norm.png,0.7,TRUE,TRUE,3,0.068836824,red,m,0.2675,alien1,TRUE,2,0.005383189,77,1,0.7,m,0.4207,0,165,165,165,1,0.7,0.3,0.4,0.6,TRUE,,,,,,,,,,,,,,,,,,,,,,,,,,,,,,,,,
GOSH_A5,2023-11-09_13h21.50.765,two_step_task_legacy,2022.2.4,Win32,59.34365913,32,learning,0,resources/alien2_norm.png,0.3,resources/alien1_norm.png,0.7,TRUE,TRUE,3,0.073764206,red,m,0.7726,alien1,TRUE,2,0.053150787,78,1,0.7,m,0.5166,0,166,166,166,1,0.7,0.3,0.4,0.6,TRUE,,,,,,,,,,,,,,,,,,,,,,,,,,,,,,,,,
GOSH_A5,2023-11-09_13h21.50.765,two_step_task_legacy,2022.2.4,Win32,59.34365913,32,learning,0,resources/alien2_norm.png,0.3,resources/alien1_norm.png,0.7,TRUE,TRUE,3,0.404903111,red,m,0.3673,alien1,TRUE,2,0.326552776,79,1,0.7,m,0.3706,0,167,167,167,1,0.7,0.3,0.4,0.6,TRUE,,,,,,,,,,,,,,,,,,,,,,,,,,,,,,,,,
GOSH_A5,2023-11-09_13h21.50.765,two_step_task_legacy,2022.2.4,Win32,59.34365913,32,learning,0,resources/alien1_norm.png,0.7,resources/alien2_norm.png,0.3,TRUE,TRUE,3,0.278649384,red,m,0.2301,alien1,TRUE,3,0.871350503,79,0,0.7,x,0.6235,0,168,168,168,1,0.7,0.3,0.4,0.6,FALSE,,,,,,,,,,,,,,,,,,,,,,,,,,,,,,,,,
GOSH_A5,2023-11-09_13h21.50.765,two_step_task_legacy,2022.2.4,Win32,59.34365913,32,learning,0,resources/alien1_norm.png,0.7,resources/alien2_norm.png,0.3,TRUE,TRUE,3,0.107711138,red,m,0.3034,alien1,TRUE,2,0.555567419,80,1,0.7,x,0.5504,0,169,169,169,1,0.7,0.3,0.4,0.6,FALSE,,,,,,,,,,,,,,,,,,,,,,,,,,,,,,,,,
GOSH_A5,2023-11-09_13h21.50.765,two_step_task_legacy,2022.2.4,Win32,59.34365913,32,learning,0,resources/alien2_norm.png,0.3,resources/alien1_norm.png,0.7,TRUE,TRUE,3,0.021967717,red,m,0.3222,alien1,TRUE,2,0.507972245,81,1,0.7,m,0.5606,0,170,170,170,1,0.7,0.3,0.4,0.6,TRUE,,,,,,,,,,,,,,,,,,,,,,,,,,,,,,,,,
GOSH_A5,2023-11-09_13h21.50.765,two_step_task_legacy,2022.2.4,Win32,59.34365913,32,learning,0,resources/alien1_norm.png,0.7,resources/alien2_norm.png,0.3,TRUE,TRUE,3,0.364630563,red,m,0.3041,alien1,TRUE,2,0.567332304,82,1,0.7,x,0.6869,0,171,171,171,1,0.7,0.3,0.4,0.6,FALSE,,,,,,,,,,,,,,,,,,,,,,,,,,,,,,,,,
GOSH_A5,2023-11-09_13h21.50.765,two_step_task_legacy,2022.2.4,Win32,59.34365913,32,learning,0,resources/alien1_norm.png,0.7,resources/alien2_norm.png,0.3,TRUE,TRUE,3,0.268830482,red,m,0.2832,alien1,TRUE,2,0.469493112,83,1,0.7,x,0.4733,0,172,172,172,1,0.7,0.3,0.4,0.6,FALSE,,,,,,,,,,,,,,,,,,,,,,,,,,,,,,,,,
GOSH_A5,2023-11-09_13h21.50.765,two_step_task_legacy,2022.2.4,Win32,59.34365913,32,learning,0,resources/alien2_norm.png,0.3,resources/alien1_norm.png,0.7,TRUE,TRUE,3,0.644435119,red,m,0.2777,alien1,TRUE,2,0.680872374,84,1,0.7,m,0.5696,0,173,173,173,1,0.7,0.3,0.4,0.6,TRUE,,,,,,,,,,,,,,,,,,,,,,,,,,,,,,,,,
GOSH_A5,2023-11-09_13h21.50.765,two_step_task_legacy,2022.2.4,Win32,59.34365913,32,learning,0,resources/alien1_norm.png,0.7,resources/alien2_norm.png,0.3,TRUE,TRUE,3,0.287102254,red,m,0.278,alien1,TRUE,3,0.837261581,84,0,0.7,x,0.546,0,174,174,174,1,0.7,0.3,0.4,0.6,FALSE,,,,,,,,,,,,,,,,,,,,,,,,,,,,,,,,,
GOSH_A5,2023-11-09_13h21.50.765,two_step_task_legacy,2022.2.4,Win32,59.34365913,32,learning,0,resources/alien1_norm.png,0.7,resources/alien2_norm.png,0.3,TRUE,TRUE,3,0.0245368,red,m,0.2205,alien1,TRUE,3,0.921651987,84,0,0.7,x,0.5501,0,175,175,175,1,0.7,0.3,0.4,0.6,FALSE,,,,,,,,,,,,,,,,,,,,,,,,,,,,,,,,,
GOSH_A5,2023-11-09_13h21.50.765,two_step_task_legacy,2022.2.4,Win32,59.34365913,32,learning,1,resources/alien3_norm.png,0.4,resources/alien4_norm.png,0.6,TRUE,TRUE,2,0.849595452,purple,m,0.0006,alien4,TRUE,2,0.457719479,85,1,0.6,m,0.9437,0,176,176,176,1,0.7,0.3,0.4,0.6,FALSE,,,,,,,,,,,,,,,,,,,,,,,,,,,,,,,,,
GOSH_A5,2023-11-09_13h21.50.765,two_step_task_legacy,2022.2.4,Win32,59.34365913,32,learning,0,resources/alien1_norm.png,0.7,resources/alien2_norm.png,0.3,TRUE,TRUE,3,0.176348866,red,m,0.2548,alien1,TRUE,3,0.926729048,85,0,0.7,x,0.7168,0,177,177,177,1,0.7,0.3,0.4,0.6,FALSE,,,,,,,,,,,,,,,,,,,,,,,,,,,,,,,,,
GOSH_A5,2023-11-09_13h21.50.765,two_step_task_legacy,2022.2.4,Win32,59.34365913,32,learning,0,resources/alien3_norm.png,0.4,resources/alien4_norm.png,0.6,TRUE,TRUE,2,0.4088008,purple,x,0.277,alien4,TRUE,2,0.021165312,86,1,0.6,m,0.4441,0,178,178,178,1,0.7,0.3,0.4,0.6,FALSE,,,,,,,,,,,,,,,,,,,,,,,,,,,,,,,,,
GOSH_A5,2023-11-09_13h21.50.765,two_step_task_legacy,2022.2.4,Win32,59.34365913,32,learning,1,resources/alien1_norm.png,0.7,resources/alien2_norm.png,0.3,TRUE,TRUE,3,0.812397198,red,x,0.2389,alien2,TRUE,3,0.514022623,86,0,0.3,m,1.1543,0,179,179,179,1,0.7,0.3,0.4,0.6,FALSE,,,,,,,,,,,,,,,,,,,,,,,,,,,,,,,,,
GOSH_A5,2023-11-09_13h21.50.765,two_step_task_legacy,2022.2.4,Win32,59.34365913,32,learning,0,resources/alien3_norm.png,0.4,resources/alien4_norm.png,0.6,TRUE,TRUE,2,0.389723919,purple,x,0.4045,alien4,TRUE,2,0.189220049,87,1,0.6,m,0.6836,0,180,180,180,1,0.7,0.3,0.4,0.6,FALSE,,,,,,,,,,,,,,,,,,,,,,,,,,,,,,,,,
GOSH_A5,2023-11-09_13h21.50.765,two_step_task_legacy,2022.2.4,Win32,59.34365913,32,learning,0,resources/alien3_norm.png,0.4,resources/alien4_norm.png,0.6,TRUE,TRUE,2,0.607533667,purple,x,0.2842,alien4,TRUE,3,0.707040324,87,0,0.6,m,0.4119,0,181,181,181,1,0.7,0.3,0.4,0.6,FALSE,,,,,,,,,,,,,,,,,,,,,,,,,,,,,,,,,
GOSH_A5,2023-11-09_13h21.50.765,two_step_task_legacy,2022.2.4,Win32,59.34365913,32,learning,0,resources/alien3_norm.png,0.4,resources/alien4_norm.png,0.6,TRUE,TRUE,2,0.612589442,purple,x,0.8451,alien4,TRUE,3,0.639873927,87,0,0.6,m,0.5897,0,182,182,182,1,0.7,0.3,0.4,0.6,FALSE,,,,,,,,,,,,,,,,,,,,,,,,,,,,,,,,,
GOSH_A5,2023-11-09_13h21.50.765,two_step_task_legacy,2022.2.4,Win32,59.34365913,32,learning,1,resources/alien2_norm.png,0.3,resources/alien1_norm.png,0.7,TRUE,TRUE,3,0.98471901,red,x,0.638,alien1,TRUE,2,0.053592363,88,1,0.7,m,1.2102,0,183,183,183,1,0.7,0.3,0.4,0.6,TRUE,,,,,,,,,,,,,,,,,,,,,,,,,,,,,,,,,
GOSH_A5,2023-11-09_13h21.50.765,two_step_task_legacy,2022.2.4,Win32,59.34365913,32,learning,0,resources/alien3_norm.png,0.4,resources/alien4_norm.png,0.6,TRUE,TRUE,2,0.631619491,purple,x,1.2402,alien3,TRUE,3,0.883492268,88,0,0.4,x,0.778,0,184,184,184,1,0.7,0.3,0.4,0.6,FALSE,,,,,,,,,,,,,,,,,,,,,,,,,,,,,,,,,
GOSH_A5,2023-11-09_13h21.50.765,two_step_task_legacy,2022.2.4,Win32,59.34365913,32,learning,1,resources/alien1_norm.png,0.7,resources/alien2_norm.png,0.3,TRUE,TRUE,3,0.836795281,red,x,0.3394,alien2,TRUE,3,0.701393071,88,0,0.3,m,0.478,0,185,185,185,1,0.7,0.3,0.4,0.6,FALSE,,,,,,,,,,,,,,,,,,,,,,,,,,,,,,,,,
GOSH_A5,2023-11-09_13h21.50.765,two_step_task_legacy,2022.2.4,Win32,59.34365913,32,learning,1,resources/alien2_norm.png,0.3,resources/alien1_norm.png,0.7,TRUE,TRUE,3,0.733861312,red,x,0.5772,alien2,TRUE,3,0.367053549,88,0,0.3,x,0.4204,0,186,186,186,1,0.7,0.3,0.4,0.6,TRUE,,,,,,,,,,,,,,,,,,,,,,,,,,,,,,,,,
GOSH_A5,2023-11-09_13h21.50.765,two_step_task_legacy,2022.2.4,Win32,59.34365913,32,learning,0,resources/alien4_norm.png,0.6,resources/alien3_norm.png,0.4,TRUE,TRUE,2,0.326660479,purple,x,0.7903,alien3,TRUE,3,0.448315202,88,0,0.4,m,0.8285,0,187,187,187,1,0.7,0.3,0.4,0.6,TRUE,,,,,,,,,,,,,,,,,,,,,,,,,,,,,,,,,
GOSH_A5,2023-11-09_13h21.50.765,two_step_task_legacy,2022.2.4,Win32,59.34365913,32,learning,0,resources/alien4_norm.png,0.6,resources/alien3_norm.png,0.4,TRUE,TRUE,2,0.068182133,purple,x,0.5547,alien4,TRUE,3,0.908680623,88,0,0.6,x,0.5844,0,188,188,188,1,0.7,0.3,0.4,0.6,TRUE,,,,,,,,,,,,,,,,,,,,,,,,,,,,,,,,,
GOSH_A5,2023-11-09_13h21.50.765,two_step_task_legacy,2022.2.4,Win32,59.34365913,32,learning,0,resources/alien2_norm.png,0.3,resources/alien1_norm.png,0.7,TRUE,TRUE,3,0.178897718,red,m,0.2163,alien2,TRUE,3,0.67907219,88,0,0.3,x,0.5719,0,189,189,189,1,0.7,0.3,0.4,0.6,TRUE,,,,,,,,,,,,,,,,,,,,,,,,,,,,,,,,,
GOSH_A5,2023-11-09_13h21.50.765,two_step_task_legacy,2022.2.4,Win32,59.34365913,32,learning,0,resources/alien1_norm.png,0.7,resources/alien2_norm.png,0.3,TRUE,TRUE,3,0.467111822,red,m,0.2886,alien2,TRUE,3,0.576026712,88,0,0.3,m,0.3291,0,190,190,190,1,0.7,0.3,0.4,0.6,FALSE,,,,,,,,,,,,,,,,,,,,,,,,,,,,,,,,,
GOSH_A5,2023-11-09_13h21.50.765,two_step_task_legacy,2022.2.4,Win32,59.34365913,32,learning,1,resources/alien4_norm.png,0.6,resources/alien3_norm.png,0.4,TRUE,TRUE,2,0.711780825,purple,m,0.3943,alien3,TRUE,3,0.905847282,88,0,0.4,m,1.5035,0,191,191,191,1,0.7,0.3,0.4,0.6,TRUE,,,,,,,,,,,,,,,,,,,,,,,,,,,,,,,,,
GOSH_A5,2023-11-09_13h21.50.765,two_step_task_legacy,2022.2.4,Win32,59.34365913,32,learning,0,resources/alien1_norm.png,0.7,resources/alien2_norm.png,0.3,TRUE,TRUE,3,0.268823633,red,m,0.2902,alien1,TRUE,2,0.205611056,89,1,0.7,x,0.8036,0,192,192,192,1,0.7,0.3,0.4,0.6,FALSE,,,,,,,,,,,,,,,,,,,,,,,,,,,,,,,,,
GOSH_A5,2023-11-09_13h21.50.765,two_step_task_legacy,2022.2.4,Win32,59.34365913,32,learning,1,resources/alien3_norm.png,0.4,resources/alien4_norm.png,0.6,TRUE,TRUE,2,0.839356556,purple,m,0.4425,alien3,TRUE,3,0.839929725,89,0,0.4,x,1.1605,0,193,193,193,1,0.7,0.3,0.4,0.6,FALSE,,,,,,,,,,,,,,,,,,,,,,,,,,,,,,,,,
GOSH_A5,2023-11-09_13h21.50.765,two_step_task_legacy,2022.2.4,Win32,59.34365913,32,learning,0,resources/alien2_norm.png,0.3,resources/alien1_norm.png,0.7,TRUE,TRUE,3,0.048379785,red,m,0.5209,alien2,TRUE,3,0.579180754,89,0,0.3,x,0.5665,0,194,194,194,1,0.7,0.3,0.4,0.6,TRUE,,,,,,,,,,,,,,,,,,,,,,,,,,,,,,,,,
GOSH_A5,2023-11-09_13h21.50.765,two_step_task_legacy,2022.2.4,Win32,59.34365913,32,learning,0,resources/alien1_norm.png,0.7,resources/alien2_norm.png,0.3,TRUE,TRUE,3,0.342779614,red,m,0.3166,alien2,TRUE,2,0.205420252,90,1,0.3,m,0.3115,0,195,195,195,1,0.7,0.3,0.4,0.6,FALSE,,,,,,,,,,,,,,,,,,,,,,,,,,,,,,,,,
GOSH_A5,2023-11-09_13h21.50.765,two_step_task_legacy,2022.2.4,Win32,59.34365913,32,learning,1,resources/alien4_norm.png,0.6,resources/alien3_norm.png,0.4,TRUE,TRUE,2,0.774732428,purple,m,0.3146,alien3,TRUE,3,0.580872822,90,0,0.4,m,0.3415,0,196,196,196,1,0.7,0.3,0.4,0.6,TRUE,,,,,,,,,,,,,,,,,,,,,,,,,,,,,,,,,
GOSH_A5,2023-11-09_13h21.50.765,two_step_task_legacy,2022.2.4,Win32,59.34365913,32,learning,1,resources/alien4_norm.png,0.6,resources/alien3_norm.png,0.4,TRUE,TRUE,2,0.826697171,purple,m,0.1218,alien4,TRUE,3,0.932851632,90,0,0.6,x,0.4999,0,197,197,197,1,0.7,0.3,0.4,0.6,TRUE,,,,,,,,,,,,,,,,,,,,,,,,,,,,,,,,,
GOSH_A5,2023-11-09_13h21.50.765,two_step_task_legacy,2022.2.4,Win32,59.34365913,32,learning,0,resources/alien2_norm.png,0.3,resources/alien1_norm.png,0.7,TRUE,TRUE,3,0.491179973,red,m,0.2225,alien1,TRUE,2,0.124631828,91,1,0.7,m,0.1679,0,198,198,198,1,0.7,0.3,0.4,0.6,TRUE,,,,,,,,,,,,,,,,,,,,,,,,,,,,,,,,,
GOSH_A5,2023-11-09_13h21.50.765,two_step_task_legacy,2022.2.4,Win32,59.34365913,32,learning,0,resources/alien2_norm.png,0.3,resources/alien1_norm.png,0.7,TRUE,TRUE,3,0.115507424,red,m,0.2949,alien1,TRUE,3,0.906630625,91,0,0.7,m,0.5293,0,199,199,199,1,0.7,0.3,0.4,0.6,TRUE,,,,,,,,,,,,,,,,,,,,,,,,,,,,,,,,,
GOSH_A5,2023-11-09_13h21.50.765,two_step_task_legacy,2022.2.4,Win32,59.34365913,32,learning,0,resources/alien1_norm.png,0.7,resources/alien2_norm.png,0.3,TRUE,TRUE,3,0.112155785,red,m,0.0005,alien2,TRUE,3,0.361808617,91,0,0.3,m,1.0671,0,200,200,200,1,0.7,0.3,0.4,0.6,FALSE,,,,,,,,,,,,,,,,,,,,,,,,,,,,,,,,,
GOSH_A5,2023-11-09_13h21.50.765,two_step_task_legacy,2022.2.4,Win32,59.34365913,32,learning,0,resources/alien2_norm.png,0.3,resources/alien1_norm.png,0.7,TRUE,TRUE,3,0.391208069,red,m,0.6342,alien1,TRUE,2,0.68220682,92,1,0.7,m,0.6678,0,201,201,201,1,0.7,0.3,0.4,0.6,TRUE,,,,,,,,,,,,,,,,,,,,,,,,,,,,,,,,,
GOSH_A5,2023-11-09_13h21.50.765,two_step_task_legacy,2022.2.4,Win32,59.34365913,32,learning,1,resources/alien3_norm.png,0.4,resources/alien4_norm.png,0.6,TRUE,TRUE,2,0.898471019,purple,m,0.3879,alien3,TRUE,2,0.086974784,93,1,0.4,x,1.2373,0,202,202,202,1,0.7,0.3,0.4,0.6,FALSE,,,,,,,,,,,,,,,,,,,,,,,,,,,,,,,,,
GOSH_A5,2023-11-09_13h21.50.765,two_step_task_legacy,2022.2.4,Win32,59.34365913,32,learning,1,resources/alien1_norm.png,0.7,resources/alien2_norm.png,0.3,TRUE,TRUE,3,0.944373251,red,x,0.3448,alien1,TRUE,2,0.620148715,94,1,0.7,x,1.0203,0,203,203,203,1,0.7,0.3,0.4,0.6,FALSE,,,,,,,,,,,,,,,,,,,,,,,,,,,,,,,,,
GOSH_A5,2023-11-09_13h21.50.765,two_step_task_legacy,2022.2.4,Win32,59.34365913,32,learning,0,resources/alien3_norm.png,0.4,resources/alien4_norm.png,0.6,TRUE,TRUE,2,0.692549451,purple,x,0.45,alien3,TRUE,3,0.674668135,94,0,0.4,x,0.9713,0,204,204,204,1,0.7,0.3,0.4,0.6,FALSE,,,,,,,,,,,,,,,,,,,,,,,,,,,,,,,,,
GOSH_A5,2023-11-09_13h21.50.765,two_step_task_legacy,2022.2.4,Win32,59.34365913,32,learning,1,resources/alien1_norm.png,0.7,resources/alien2_norm.png,0.3,TRUE,TRUE,3,0.722802001,red,x,0.3498,alien1,TRUE,2,0.059197438,95,1,0.7,x,1.0769,0,205,205,205,1,0.7,0.3,0.4,0.6,FALSE,,,,,,,,,,,,,,,,,,,,,,,,,,,,,,,,,
GOSH_A5,2023-11-09_13h21.50.765,two_step_task_legacy,2022.2.4,Win32,59.34365913,32,learning,0,resources/alien4_norm.png,0.6,resources/alien3_norm.png,0.4,TRUE,TRUE,2,0.31976806,purple,x,0.6187,alien4,TRUE,3,0.966267426,95,0,0.6,x,0.7171,0,206,206,206,1,0.7,0.3,0.4,0.6,TRUE,,,,,,,,,,,,,,,,,,,,,,,,,,,,,,,,,
GOSH_A5,2023-11-09_13h21.50.765,two_step_task_legacy,2022.2.4,Win32,59.34365913,32,learning,0,resources/alien1_norm.png,0.7,resources/alien2_norm.png,0.3,TRUE,TRUE,3,0.54503884,red,m,0.6177,alien1,TRUE,2,0.618224846,96,1,0.7,x,0.5486,0,207,207,207,1,0.7,0.3,0.4,0.6,FALSE,,,,,,,,,,,,,,,,,,,,,,,,,,,,,,,,,
GOSH_A5,2023-11-09_13h21.50.765,two_step_task_legacy,2022.2.4,Win32,59.34365913,32,learning,1,resources/alien3_norm.png,0.4,resources/alien4_norm.png,0.6,TRUE,TRUE,2,0.783576353,purple,m,0.3057,alien3,TRUE,3,0.638663287,96,0,0.4,x,1.2039,0,208,208,208,1,0.7,0.3,0.4,0.6,FALSE,,,,,,,,,,,,,,,,,,,,,,,,,,,,,,,,,
GOSH_A5,2023-11-09_13h21.50.765,two_step_task_legacy,2022.2.4,Win32,59.34365913,32,learning,0,resources/alien2_norm.png,0.3,resources/alien1_norm.png,0.7,TRUE,TRUE,3,0.073047933,red,m,0.0605,alien1,TRUE,3,0.704132321,96,0,0.7,m,0.5836,0,209,209,209,1,0.7,0.3,0.4,0.6,TRUE,,,,,,,,,,,,,,,,,,,,,,,,,,,,,,,,,
GOSH_A5,2023-11-09_13h21.50.765,two_step_task_legacy,2022.2.4,Win32,59.34365913,32,learning,1,resources/alien4_norm.png,0.6,resources/alien3_norm.png,0.4,TRUE,TRUE,2,0.94444875,purple,m,0.1221,alien3,TRUE,2,0.186431457,97,1,0.4,m,1.2045,0,210,210,210,1,0.7,0.3,0.4,0.6,TRUE,,,,,,,,,,,,,,,,,,,,,,,,,,,,,,,,,
GOSH_A5,2023-11-09_13h21.50.765,two_step_task_legacy,2022.2.4,Win32,59.34365913,32,learning,1,resources/alien4_norm.png,0.6,resources/alien3_norm.png,0.4,TRUE,TRUE,2,0.886658816,purple,m,0.2664,alien3,TRUE,3,0.803910733,97,0,0.4,m,1.0128,0,211,211,211,1,0.7,0.3,0.4,0.6,TRUE,,,,,,,,,,,,,,,,,,,,,,,,,,,,,,,,,
GOSH_A5,2023-11-09_13h21.50.765,two_step_task_legacy,2022.2.4,Win32,59.34365913,32,learning,1,resources/alien3_norm.png,0.4,resources/alien4_norm.png,0.6,TRUE,TRUE,2,0.73128886,purple,m,0.1565,alien4,TRUE,3,0.672485573,97,0,0.6,m,0.9142,0,212,212,212,1,0.7,0.3,0.4,0.6,FALSE,,,,,,,,,,,,,,,,,,,,,,,,,,,,,,,,,
GOSH_A5,2023-11-09_13h21.50.765,two_step_task_legacy,2022.2.4,Win32,59.34365913,32,learning,0,resources/alien4_norm.png,0.6,resources/alien3_norm.png,0.4,TRUE,TRUE,2,0.147133136,purple,x,0.1377,alien4,TRUE,2,0.072974754,98,1,0.6,x,0.9041,0,213,213,213,1,0.7,0.3,0.4,0.6,TRUE,,,,,,,,,,,,,,,,,,,,,,,,,,,,,,,,,
GOSH_A5,2023-11-09_13h21.50.765,two_step_task_legacy,2022.2.4,Win32,59.34365913,32,learning,1,resources/alien2_norm.png,0.3,resources/alien1_norm.png,0.7,TRUE,TRUE,3,0.791734098,red,x,0.6342,alien1,TRUE,2,0.611592563,99,1,0.7,m,1.3331,0,214,214,214,1,0.7,0.3,0.4,0.6,TRUE,,,,,,,,,,,,,,,,,,,,,,,,,,,,,,,,,
GOSH_A5,2023-11-09_13h21.50.765,two_step_task_legacy,2022.2.4,Win32,59.34365913,32,learning,1,resources/alien1_norm.png,0.7,resources/alien2_norm.png,0.3,TRUE,TRUE,3,0.855567283,red,x,1.0127,alien1,TRUE,2,0.438329484,100,1,0.7,x,0.7876,0,215,215,215,1,0.7,0.3,0.4,0.6,FALSE,,,,,,,,,,,,,,,,,,,,,,,,,,,,,,,,,
GOSH_A5,2023-11-09_13h21.50.765,two_step_task_legacy,2022.2.4,Win32,59.34365913,32,learning,0,resources/alien4_norm.png,0.6,resources/alien3_norm.png,0.4,TRUE,TRUE,2,0.616379406,purple,x,0.6875,alien4,TRUE,2,0.009832375,101,1,0.6,x,0.9549,0,216,216,216,1,0.7,0.3,0.4,0.6,TRUE,,,,,,,,,,,,,,,,,,,,,,,,,,,,,,,,,
GOSH_A5,2023-11-09_13h21.50.765,two_step_task_legacy,2022.2.4,Win32,59.34365913,32,learning,0,resources/alien3_norm.png,0.4,resources/alien4_norm.png,0.6,TRUE,TRUE,2,0.129335254,purple,x,0.556,alien4,TRUE,3,0.713175843,101,0,0.6,m,0.9345,0,217,217,217,1,0.7,0.3,0.4,0.6,FALSE,,,,,,,,,,,,,,,,,,,,,,,,,,,,,,,,,
GOSH_A5,2023-11-09_13h21.50.765,two_step_task_legacy,2022.2.4,Win32,59.34365913,32,learning,0,resources/alien3_norm.png,0.4,resources/alien4_norm.png,0.6,TRUE,TRUE,2,0.272861221,purple,x,0.723,alien3,TRUE,3,0.53429061,101,0,0.4,x,0.6836,0,218,218,218,1,0.7,0.3,0.4,0.6,FALSE,,,,,,,,,,,,,,,,,,,,,,,,,,,,,,,,,
GOSH_A5,2023-11-09_13h21.50.765,two_step_task_legacy,2022.2.4,Win32,59.34365913,32,learning,0,resources/alien3_norm.png,0.4,resources/alien4_norm.png,0.6,TRUE,TRUE,2,0.463480322,purple,x,0.4561,alien4,TRUE,3,0.984938265,101,0,0.6,m,0.5074,0,219,219,219,1,0.7,0.3,0.4,0.6,FALSE,,,,,,,,,,,,,,,,,,,,,,,,,,,,,,,,,
GOSH_A5,2023-11-09_13h21.50.765,two_step_task_legacy,2022.2.4,Win32,59.34365913,32,learning,0,resources/alien3_norm.png,0.4,resources/alien4_norm.png,0.6,TRUE,TRUE,2,0.511651758,purple,x,0.3554,alien3,TRUE,2,0.141892356,102,1,0.4,x,0.3342,0,220,220,220,1,0.7,0.3,0.4,0.6,FALSE,,,,,,,,,,,,,,,,,,,,,,,,,,,,,,,,,
GOSH_A5,2023-11-09_13h21.50.765,two_step_task_legacy,2022.2.4,Win32,59.34365913,32,learning,0,resources/alien3_norm.png,0.4,resources/alien4_norm.png,0.6,TRUE,TRUE,2,0.359280585,purple,x,0.5868,alien3,TRUE,3,0.715983246,102,0,0.4,x,0.4943,0,221,221,221,1,0.7,0.3,0.4,0.6,FALSE,,,,,,,,,,,,,,,,,,,,,,,,,,,,,,,,,
GOSH_A5,2023-11-09_13h21.50.765,two_step_task_legacy,2022.2.4,Win32,59.34365913,32,learning,0,resources/alien4_norm.png,0.6,resources/alien3_norm.png,0.4,TRUE,TRUE,2,0.322549551,purple,x,0.3937,alien3,TRUE,3,0.779255764,102,0,0.4,m,0.5343,0,222,222,222,1,0.7,0.3,0.4,0.6,TRUE,,,,,,,,,,,,,,,,,,,,,,,,,,,,,,,,,
GOSH_A5,2023-11-09_13h21.50.765,two_step_task_legacy,2022.2.4,Win32,59.34365913,32,learning,1,resources/alien4_norm.png,0.6,resources/alien3_norm.png,0.4,TRUE,TRUE,2,0.955445097,purple,m,0.3864,alien4,TRUE,3,0.909463031,102,0,0.6,x,0.3844,0,223,223,223,1,0.7,0.3,0.4,0.6,TRUE,,,,,,,,,,,,,,,,,,,,,,,,,,,,,,,,,
GOSH_A5,2023-11-09_13h21.50.765,two_step_task_legacy,2022.2.4,Win32,59.34365913,32,learning,0,resources/alien3_norm.png,0.4,resources/alien4_norm.png,0.6,TRUE,TRUE,2,0.174759053,purple,x,0.4115,alien4,TRUE,2,0.035864428,103,1,0.6,m,0.3113,0,224,224,224,1,0.7,0.3,0.4,0.6,FALSE,,,,,,,,,,,,,,,,,,,,,,,,,,,,,,,,,
GOSH_A5,2023-11-09_13h21.50.765,two_step_task_legacy,2022.2.4,Win32,59.34365913,32,learning,0,resources/alien4_norm.png,0.6,resources/alien3_norm.png,0.4,TRUE,TRUE,2,0.402527823,purple,x,0.4376,alien3,TRUE,3,0.517373075,103,0,0.4,m,0.3049,0,225,225,225,1,0.7,0.3,0.4,0.6,TRUE,,,,,,,,,,,,,,,,,,,,,,,,,,,,,,,,,
GOSH_A5,2023-11-09_13h21.50.765,two_step_task_legacy,2022.2.4,Win32,59.34365913,32,learning,1,resources/alien2_norm.png,0.3,resources/alien1_norm.png,0.7,TRUE,TRUE,3,0.747092528,red,x,0.3948,alien2,TRUE,3,0.955690719,103,0,0.3,x,0.3086,0,226,226,226,1,0.7,0.3,0.4,0.6,TRUE,,,,,,,,,,,,,,,,,,,,,,,,,,,,,,,,,
GOSH_A5,2023-11-09_13h21.50.765,two_step_task_legacy,2022.2.4,Win32,59.34365913,32,learning,0,resources/alien3_norm.png,0.4,resources/alien4_norm.png,0.6,TRUE,TRUE,2,0.474270963,purple,x,0.2878,alien4,TRUE,2,0.344817142,104,1,0.6,m,0.3163,0,227,227,227,1,0.7,0.3,0.4,0.6,FALSE,,,,,,,,,,,,,,,,,,,,,,,,,,,,,,,,,
GOSH_A5,2023-11-09_13h21.50.765,two_step_task_legacy,2022.2.4,Win32,59.34365913,32,learning,0,resources/alien3_norm.png,0.4,resources/alien4_norm.png,0.6,TRUE,TRUE,2,0.685252852,purple,x,0.3106,alien4,TRUE,3,0.64351193,104,0,0.6,m,0.5542,0,228,228,228,1,0.7,0.3,0.4,0.6,FALSE,,,,,,,,,,,,,,,,,,,,,,,,,,,,,,,,,
GOSH_A5,2023-11-09_13h21.50.765,two_step_task_legacy,2022.2.4,Win32,59.34365913,32,learning,0,resources/alien4_norm.png,0.6,resources/alien3_norm.png,0.4,TRUE,TRUE,2,0.66502376,purple,x,0.454,alien4,TRUE,2,0.022664552,105,1,0.6,x,0.5708,0,229,229,229,1,0.7,0.3,0.4,0.6,TRUE,,,,,,,,,,,,,,,,,,,,,,,,,,,,,,,,,
GOSH_A5,2023-11-09_13h21.50.765,two_step_task_legacy,2022.2.4,Win32,59.34365913,32,learning,0,resources/alien3_norm.png,0.4,resources/alien4_norm.png,0.6,TRUE,TRUE,2,0.067044347,purple,x,0.3534,alien4,TRUE,2,0.55181582,106,1,0.6,m,0.7397,0,230,230,230,1,0.7,0.3,0.4,0.6,FALSE,,,,,,,,,,,,,,,,,,,,,,,,,,,,,,,,,
GOSH_A5,2023-11-09_13h21.50.765,two_step_task_legacy,2022.2.4,Win32,59.34365913,32,learning,0,resources/alien3_norm.png,0.4,resources/alien4_norm.png,0.6,TRUE,TRUE,2,0.548695691,purple,x,0.3763,alien4,TRUE,3,0.600056719,106,0,0.6,m,0.6212,0,231,231,231,1,0.7,0.3,0.4,0.6,FALSE,,,,,,,,,,,,,,,,,,,,,,,,,,,,,,,,,
GOSH_A5,2023-11-09_13h21.50.765,two_step_task_legacy,2022.2.4,Win32,59.34365913,32,learning,1,resources/alien3_norm.png,0.4,resources/alien4_norm.png,0.6,TRUE,TRUE,2,0.841203542,purple,m,0.495,alien4,TRUE,2,0.451994567,107,1,0.6,m,0.5347,0,232,232,232,1,0.7,0.3,0.4,0.6,FALSE,,,,,,,,,,,,,,,,,,,,,,,,,,,,,,,,,
GOSH_A5,2023-11-09_13h21.50.765,two_step_task_legacy,2022.2.4,Win32,59.34365913,32,learning,0,resources/alien3_norm.png,0.4,resources/alien4_norm.png,0.6,TRUE,TRUE,2,0.506350058,purple,x,0.9276,alien4,TRUE,2,0.505423838,108,1,0.6,m,0.4782,0,233,233,233,1,0.7,0.3,0.4,0.6,FALSE,,,,,,,,,,,,,,,,,,,,,,,,,,,,,,,,,
GOSH_A5,2023-11-09_13h21.50.765,two_step_task_legacy,2022.2.4,Win32,59.34365913,32,learning,0,resources/alien3_norm.png,0.4,resources/alien4_norm.png,0.6,TRUE,TRUE,2,0.601219845,purple,x,0.3168,alien4,TRUE,2,0.589747853,109,1,0.6,m,0.4871,0,234,234,234,1,0.7,0.3,0.4,0.6,FALSE,,,,,,,,,,,,,,,,,,,,,,,,,,,,,,,,,
GOSH_A5,2023-11-09_13h21.50.765,two_step_task_legacy,2022.2.4,Win32,59.34365913,32,learning,0,resources/alien3_norm.png,0.4,resources/alien4_norm.png,0.6,TRUE,TRUE,2,0.402378012,purple,x,0.2895,alien4,TRUE,2,0.421436143,110,1,0.6,m,0.3939,0,235,235,235,1,0.7,0.3,0.4,0.6,FALSE,,,,,,,,,,,,,,,,,,,,,,,,,,,,,,,,,
GOSH_A5,2023-11-09_13h21.50.765,two_step_task_legacy,2022.2.4,Win32,59.34365913,32,learning,0,resources/alien4_norm.png,0.6,resources/alien3_norm.png,0.4,TRUE,TRUE,2,0.447651445,purple,x,0.4376,alien4,TRUE,3,0.743378359,110,0,0.6,x,0.6228,0,236,236,236,1,0.7,0.3,0.4,0.6,TRUE,,,,,,,,,,,,,,,,,,,,,,,,,,,,,,,,,
GOSH_A5,2023-11-09_13h21.50.765,two_step_task_legacy,2022.2.4,Win32,59.34365913,32,learning,1,resources/alien1_norm.png,0.7,resources/alien2_norm.png,0.3,TRUE,TRUE,3,0.978697206,red,x,0.2578,alien2,TRUE,3,0.56752191,110,0,0.3,m,1.0485,0,237,237,237,1,0.7,0.3,0.4,0.6,FALSE,,,,,,,,,,,,,,,,,,,,,,,,,,,,,,,,,
GOSH_A5,2023-11-09_13h21.50.765,two_step_task_legacy,2022.2.4,Win32,59.34365913,32,learning,0,resources/alien3_norm.png,0.4,resources/alien4_norm.png,0.6,TRUE,TRUE,2,0.270568631,purple,x,0.2142,alien4,TRUE,3,0.890768789,110,0,0.6,m,0.789,0,238,238,238,1,0.7,0.3,0.4,0.6,FALSE,,,,,,,,,,,,,,,,,,,,,,,,,,,,,,,,,
GOSH_A5,2023-11-09_13h21.50.765,two_step_task_legacy,2022.2.4,Win32,59.34365913,32,learning,1,resources/alien2_norm.png,0.3,resources/alien1_norm.png,0.7,TRUE,TRUE,3,0.959996263,red,x,0.594,alien2,TRUE,3,0.910485145,110,0,0.3,x,0.889,0,239,239,239,1,0.7,0.3,0.4,0.6,TRUE,,,,,,,,,,,,,,,,,,,,,,,,,,,,,,,,,
GOSH_A5,2023-11-09_13h21.50.765,two_step_task_legacy,2022.2.4,Win32,59.34365913,32,learning,0,resources/alien4_norm.png,0.6,resources/alien3_norm.png,0.4,TRUE,TRUE,2,0.575211115,purple,x,0.3926,alien4,TRUE,3,0.886974525,110,0,0.6,x,0.5669,0,240,240,240,1,0.7,0.3,0.4,0.6,TRUE,,,,,,,,,,,,,,,,,,,,,,,,,,,,,,,,,
GOSH_A5,2023-11-09_13h21.50.765,two_step_task_legacy,2022.2.4,Win32,59.34365913,32,learning,0,resources/alien3_norm.png,0.4,resources/alien4_norm.png,0.6,TRUE,TRUE,2,0.550358175,purple,x,0.0095,alien4,TRUE,2,0.3840437,111,1,0.6,m,0.4839,0,241,241,241,1,0.7,0.3,0.4,0.6,FALSE,,,,,,,,,,,,,,,,,,,,,,,,,,,,,,,,,
GOSH_A5,2023-11-09_13h21.50.765,two_step_task_legacy,2022.2.4,Win32,59.34365913,32,learning,1,resources/alien2_norm.png,0.3,resources/alien1_norm.png,0.7,TRUE,TRUE,3,0.77791657,red,x,0.3739,alien2,TRUE,3,0.992704434,111,0,0.3,x,0.928,0,242,242,242,1,0.7,0.3,0.4,0.6,TRUE,,,,,,,,,,,,,,,,,,,,,,,,,,,,,,,,,
GOSH_A5,2023-11-09_13h21.50.765,two_step_task_legacy,2022.2.4,Win32,59.34365913,32,learning,0,resources/alien4_norm.png,0.6,resources/alien3_norm.png,0.4,TRUE,TRUE,2,0.352742957,purple,x,0.3575,alien4,TRUE,2,0.179797356,112,1,0.6,x,0.685,0,243,243,243,1,0.7,0.3,0.4,0.6,TRUE,,,,,,,,,,,,,,,,,,,,,,,,,,,,,,,,,
GOSH_A5,2023-11-09_13h21.50.765,two_step_task_legacy,2022.2.4,Win32,59.34365913,32,learning,1,resources/alien2_norm.png,0.3,resources/alien1_norm.png,0.7,TRUE,TRUE,3,0.796794623,red,x,0.2779,alien2,TRUE,2,0.080592625,113,1,0.3,x,0.9738,0,244,244,244,1,0.7,0.3,0.4,0.6,TRUE,,,,,,,,,,,,,,,,,,,,,,,,,,,,,,,,,
GOSH_A5,2023-11-09_13h21.50.765,two_step_task_legacy,2022.2.4,Win32,59.34365913,32,learning,0,resources/alien3_norm.png,0.4,resources/alien4_norm.png,0.6,TRUE,TRUE,2,0.439571105,purple,x,0.3281,alien4,TRUE,2,0.346861868,114,1,0.6,m,0.7338,0,245,245,245,1,0.7,0.3,0.4,0.6,FALSE,,,,,,,,,,,,,,,,,,,,,,,,,,,,,,,,,
GOSH_A5,2023-11-09_13h21.50.765,two_step_task_legacy,2022.2.4,Win32,59.34365913,32,learning,0,resources/alien3_norm.png,0.4,resources/alien4_norm.png,0.6,TRUE,TRUE,2,0.232600341,purple,x,0.4237,alien4,TRUE,2,0.334458973,115,1,0.6,m,0.4116,0,246,246,246,1,0.7,0.3,0.4,0.6,FALSE,,,,,,,,,,,,,,,,,,,,,,,,,,,,,,,,,
GOSH_A5,2023-11-09_13h21.50.765,two_step_task_legacy,2022.2.4,Win32,59.34365913,32,learning,0,resources/alien3_norm.png,0.4,resources/alien4_norm.png,0.6,TRUE,TRUE,2,0.590086815,purple,x,0.4446,alien4,TRUE,3,0.725251017,115,0,0.6,m,0.4215,0,247,247,247,1,0.7,0.3,0.4,0.6,FALSE,,,,,,,,,,,,,,,,,,,,,,,,,,,,,,,,,
GOSH_A5,2023-11-09_13h21.50.765,two_step_task_legacy,2022.2.4,Win32,59.34365913,32,learning,0,resources/alien4_norm.png,0.6,resources/alien3_norm.png,0.4,TRUE,TRUE,2,0.58708581,purple,x,0.3222,alien4,TRUE,3,0.773411502,115,0,0.6,x,0.68,0,248,248,248,1,0.7,0.3,0.4,0.6,TRUE,,,,,,,,,,,,,,,,,,,,,,,,,,,,,,,,,
GOSH_A5,2023-11-09_13h21.50.765,two_step_task_legacy,2022.2.4,Win32,59.34365913,32,learning,1,resources/alien2_norm.png,0.3,resources/alien1_norm.png,0.7,TRUE,TRUE,3,0.810731841,red,x,0.9003,alien2,TRUE,2,0.133423228,116,1,0.3,x,0.6825,0,249,249,249,1,0.7,0.3,0.4,0.6,TRUE,,,,,,,,,,,,,,,,,,,,,,,,,,,,,,,,,
GOSH_A5,2023-11-09_13h21.50.765,two_step_task_legacy,2022.2.4,Win32,59.34365913,32,learning,1,resources/alien1_norm.png,0.7,resources/alien2_norm.png,0.3,TRUE,TRUE,3,0.99544383,red,x,0.6016,alien2,TRUE,3,0.718932199,116,0,0.3,m,0.9334,0,250,250,250,1,0.7,0.3,0.4,0.6,FALSE,,,,,,,,,,,,,,,,,,,,,,,,,,,,,,,,,
GOSH_A5,2023-11-09_13h21.50.765,two_step_task_legacy,2022.2.4,Win32,59.34365913,32,learning,1,resources/alien1_norm.png,0.7,resources/alien2_norm.png,0.3,TRUE,TRUE,3,0.884690838,red,x,0.6616,alien1,TRUE,2,0.536252359,117,1,0.7,x,0.4604,0,251,251,251,1,0.7,0.3,0.4,0.6,FALSE,,,,,,,,,,,,,,,,,,,,,,,,,,,,,,,,,
GOSH_A5,2023-11-09_13h21.50.765,two_step_task_legacy,2022.2.4,Win32,59.34365913,32,learning,0,resources/alien4_norm.png,0.6,resources/alien3_norm.png,0.4,TRUE,TRUE,2,0.098856264,purple,x,0.6932,alien4,TRUE,2,0.243102155,118,1,0.6,x,0.7494,0,252,252,252,1,0.7,0.3,0.4,0.6,TRUE,,,,,,,,,,,,,,,,,,,,,,,,,,,,,,,,,
GOSH_A5,2023-11-09_13h21.50.765,two_step_task_legacy,2022.2.4,Win32,59.34365913,32,learning,0,resources/alien3_norm.png,0.4,resources/alien4_norm.png,0.6,TRUE,TRUE,2,0.328509265,purple,x,0.3515,alien4,TRUE,2,0.473766336,119,1,0.6,m,0.5616,0,253,253,253,1,0.7,0.3,0.4,0.6,FALSE,,,,,,,,,,,,,,,,,,,,,,,,,,,,,,,,,
GOSH_A5,2023-11-09_13h21.50.765,two_step_task_legacy,2022.2.4,Win32,59.34365913,32,learning,1,resources/alien2_norm.png,0.3,resources/alien1_norm.png,0.7,TRUE,TRUE,3,0.974781016,red,x,0.6283,alien2,TRUE,2,0.164787372,120,1,0.3,x,0.7599,0,254,254,254,1,0.7,0.3,0.4,0.6,TRUE,,,,,,,,,,,,,,,,,,,,,,,,,,,,,,,,,
GOSH_A5,2023-11-09_13h21.50.765,two_step_task_legacy,2022.2.4,Win32,59.34365913,32,learning,0,resources/alien4_norm.png,0.6,resources/alien3_norm.png,0.4,TRUE,TRUE,2,0.406346766,purple,x,0.4,alien4,TRUE,2,0.269161704,121,1,0.6,x,0.6669,0,255,255,255,1,0.7,0.3,0.4,0.6,TRUE,,,,,,,,,,,,,,,,,,,,,,,,,,,,,,,,,
GOSH_A5,2023-11-09_13h21.50.765,two_step_task_legacy,2022.2.4,Win32,59.34365913,32,learning,1,resources/alien1_norm.png,0.7,resources/alien2_norm.png,0.3,TRUE,TRUE,3,0.985161402,red,x,0.3007,alien2,TRUE,3,0.78723572,121,0,0.3,m,0.7826,0,256,256,256,1,0.7,0.3,0.4,0.6,FALSE,,,,,,,,,,,,,,,,,,,,,,,,,,,,,,,,,
GOSH_A5,2023-11-09_13h21.50.765,two_step_task_legacy,2022.2.4,Win32,59.34365913,32,learning,0,resources/alien3_norm.png,0.4,resources/alien4_norm.png,0.6,TRUE,TRUE,2,0.514722626,purple,x,0.2709,alien3,TRUE,3,0.770775146,121,0,0.4,x,0.4462,0,257,257,257,1,0.7,0.3,0.4,0.6,FALSE,,,,,,,,,,,,,,,,,,,,,,,,,,,,,,,,,
GOSH_A5,2023-11-09_13h21.50.765,two_step_task_legacy,2022.2.4,Win32,59.34365913,32,learning,0,resources/alien4_norm.png,0.6,resources/alien3_norm.png,0.4,TRUE,TRUE,2,0.176300933,purple,x,0.4984,alien4,TRUE,2,0.051457393,122,1,0.6,x,0.5775,0,258,258,258,1,0.7,0.3,0.4,0.6,TRUE,,,,,,,,,,,,,,,,,,,,,,,,,,,,,,,,,
GOSH_A5,2023-11-09_13h21.50.765,two_step_task_legacy,2022.2.4,Win32,59.34365913,32,learning,0,resources/alien4_norm.png,0.6,resources/alien3_norm.png,0.4,TRUE,TRUE,2,0.439977326,purple,x,0.2843,alien4,TRUE,3,0.814132175,122,0,0.6,x,0.4573,0,259,259,259,1,0.7,0.3,0.4,0.6,TRUE,,,,,,,,,,,,,,,,,,,,,,,,,,,,,,,,,
GOSH_A5,2023-11-09_13h21.50.765,two_step_task_legacy,2022.2.4,Win32,59.34365913,32,learning,1,resources/alien4_norm.png,0.6,resources/alien3_norm.png,0.4,TRUE,TRUE,2,0.965982359,purple,m,0.7847,alien4,TRUE,2,0.196998606,123,1,0.6,x,0.5956,0,260,260,260,1,0.7,0.3,0.4,0.6,TRUE,,,,,,,,,,,,,,,,,,,,,,,,,,,,,,,,,
GOSH_A5,2023-11-09_13h21.50.765,two_step_task_legacy,2022.2.4,Win32,59.34365913,32,learning,0,resources/alien2_norm.png,0.3,resources/alien1_norm.png,0.7,TRUE,TRUE,3,0.088488796,red,m,0.3185,alien2,TRUE,3,0.57519969,123,0,0.3,x,0.7884,0,261,261,261,1,0.7,0.3,0.4,0.6,TRUE,,,,,,,,,,,,,,,,,,,,,,,,,,,,,,,,,
GOSH_A5,2023-11-09_13h21.50.765,two_step_task_legacy,2022.2.4,Win32,59.34365913,32,learning,0,resources/alien3_norm.png,0.4,resources/alien4_norm.png,0.6,TRUE,TRUE,2,0.408036343,purple,x,0.383,alien4,TRUE,2,0.281594002,124,1,0.6,m,0.7032,0,262,262,262,1,0.7,0.3,0.4,0.6,FALSE,,,,,,,,,,,,,,,,,,,,,,,,,,,,,,,,,
GOSH_A5,2023-11-09_13h21.50.765,two_step_task_legacy,2022.2.4,Win32,59.34365913,32,learning,1,resources/alien2_norm.png,0.3,resources/alien1_norm.png,0.7,TRUE,TRUE,3,0.775077569,red,x,0.6727,alien2,TRUE,3,0.761347687,124,0,0.3,x,0.9778,0,263,263,263,1,0.7,0.3,0.4,0.6,TRUE,,,,,,,,,,,,,,,,,,,,,,,,,,,,,,,,,
GOSH_A5,2023-11-09_13h21.50.765,two_step_task_legacy,2022.2.4,Win32,59.34365913,32,learning,0,resources/alien1_norm.png,0.7,resources/alien2_norm.png,0.3,TRUE,TRUE,3,0.208400869,red,m,0.5045,alien2,TRUE,3,0.389250347,124,0,0.3,m,0.791,0,264,264,264,1,0.7,0.3,0.4,0.6,FALSE,,,,,,,,,,,,,,,,,,,,,,,,,,,,,,,,,
GOSH_A5,2023-11-09_13h21.50.765,two_step_task_legacy,2022.2.4,Win32,59.34365913,32,learning,1,resources/alien2_norm.png,0.3,resources/alien1_norm.png,0.7,TRUE,TRUE,3,0.859475916,red,x,0.7272,alien2,TRUE,3,0.459906434,124,0,0.3,x,0.577,0,265,265,265,1,0.7,0.3,0.4,0.6,TRUE,,,,,,,,,,,,,,,,,,,,,,,,,,,,,,,,,
GOSH_A5,2023-11-09_13h21.50.765,two_step_task_legacy,2022.2.4,Win32,59.34365913,32,learning,1,resources/alien1_norm.png,0.7,resources/alien2_norm.png,0.3,TRUE,TRUE,3,0.832632242,red,x,0.3395,alien2,TRUE,3,0.758815215,124,0,0.3,m,0.6006,0,266,266,266,1,0.7,0.3,0.4,0.6,FALSE,,,,,,,,,,,,,,,,,,,,,,,,,,,,,,,,,
GOSH_A5,2023-11-09_13h21.50.765,two_step_task_legacy,2022.2.4,Win32,59.34365913,32,learning,1,resources/alien1_norm.png,0.7,resources/alien2_norm.png,0.3,TRUE,TRUE,3,0.995928396,red,x,0.558,alien2,TRUE,3,0.671034287,124,0,0.3,m,0.8677,0,267,267,267,1,0.7,0.3,0.4,0.6,FALSE,,,,,,,,,,,,,,,,,,,,,,,,,,,,,,,,,
GOSH_A5,2023-11-09_13h21.50.765,two_step_task_legacy,2022.2.4,Win32,59.34365913,32,learning,0,resources/alien4_norm.png,0.6,resources/alien3_norm.png,0.4,TRUE,TRUE,2,0.125899965,purple,x,0.3366,alien4,TRUE,3,0.976824933,124,0,0.6,x,0.778,0,268,268,268,1,0.7,0.3,0.4,0.6,TRUE,,,,,,,,,,,,,,,,,,,,,,,,,,,,,,,,,
GOSH_A5,2023-11-09_13h21.50.765,two_step_task_legacy,2022.2.4,Win32,59.34365913,32,learning,0,resources/alien1_norm.png,0.7,resources/alien2_norm.png,0.3,TRUE,TRUE,3,0.048824291,red,m,0.889,alien1,TRUE,2,0.486166899,125,1,0.7,x,0.694,0,269,269,269,1,0.7,0.3,0.4,0.6,FALSE,,,,,,,,,,,,,,,,,,,,,,,,,,,,,,,,,
GOSH_A5,2023-11-09_13h21.50.765,two_step_task_legacy,2022.2.4,Win32,59.34365913,32,learning,0,resources/alien1_norm.png,0.7,resources/alien2_norm.png,0.3,TRUE,TRUE,3,0.493998415,red,m,0.3937,alien1,TRUE,3,0.837147692,125,0,0.7,x,0.5405,0,270,270,270,1,0.7,0.3,0.4,0.6,FALSE,,,,,,,,,,,,,,,,,,,,,,,,,,,,,,,,,
GOSH_A5,2023-11-09_13h21.50.765,two_step_task_legacy,2022.2.4,Win32,59.34365913,32,learning,1,resources/alien4_norm.png,0.6,resources/alien3_norm.png,0.4,TRUE,TRUE,2,0.723258146,purple,m,0.0006,alien4,TRUE,2,0.346319701,126,1,0.6,x,1.2646,0,271,271,271,1,0.7,0.3,0.4,0.6,TRUE,,,,,,,,,,,,,,,,,,,,,,,,,,,,,,,,,
GOSH_A5,2023-11-09_13h21.50.765,two_step_task_legacy,2022.2.4,Win32,59.34365913,32,learning,0,resources/alien2_norm.png,0.3,resources/alien1_norm.png,0.7,TRUE,TRUE,3,0.301199278,red,m,0.3422,alien1,TRUE,3,0.932033179,126,0,0.7,m,0.8969,0,272,272,272,1,0.7,0.3,0.4,0.6,TRUE,,,,,,,,,,,,,,,,,,,,,,,,,,,,,,,,,
GOSH_A5,2023-11-09_13h21.50.765,two_step_task_legacy,2022.2.4,Win32,59.34365913,32,learning,1,resources/alien4_norm.png,0.6,resources/alien3_norm.png,0.4,TRUE,TRUE,2,0.757882998,purple,m,0.3115,alien4,TRUE,3,0.762727611,126,0,0.6,x,0.7559,0,273,273,273,1,0.7,0.3,0.4,0.6,TRUE,,,,,,,,,,,,,,,,,,,,,,,,,,,,,,,,,
GOSH_A5,2023-11-09_13h21.50.765,two_step_task_legacy,2022.2.4,Win32,59.34365913,32,learning,0,resources/alien1_norm.png,0.7,resources/alien2_norm.png,0.3,TRUE,TRUE,3,0.494088947,red,m,0.2936,alien1,TRUE,2,0.467805361,127,1,0.7,x,0.7836,0,274,274,274,1,0.7,0.3,0.4,0.6,FALSE,,,,,,,,,,,,,,,,,,,,,,,,,,,,,,,,,
GOSH_A5,2023-11-09_13h21.50.765,two_step_task_legacy,2022.2.4,Win32,59.34365913,32,learning,0,resources/alien3_norm.png,0.4,resources/alien4_norm.png,0.6,TRUE,TRUE,2,0.132472057,purple,x,0.7783,alien4,TRUE,3,0.767619797,127,0,0.6,m,0.986,0,275,275,275,1,0.7,0.3,0.4,0.6,FALSE,,,,,,,,,,,,,,,,,,,,,,,,,,,,,,,,,
GOSH_A5,2023-11-09_13h21.50.765,two_step_task_legacy,2022.2.4,Win32,59.34365913,32,learning,0,resources/alien4_norm.png,0.6,resources/alien3_norm.png,0.4,TRUE,TRUE,2,0.506105112,purple,x,0.9045,alien4,TRUE,3,0.601490362,127,0,0.6,x,0.3434,0,276,276,276,1,0.7,0.3,0.4,0.6,TRUE,,,,,,,,,,,,,,,,,,,,,,,,,,,,,,,,,
GOSH_A5,2023-11-09_13h21.50.765,two_step_task_legacy,2022.2.4,Win32,59.34365913,32,learning,0,resources/alien2_norm.png,0.3,resources/alien1_norm.png,0.7,TRUE,TRUE,3,0.430298264,red,m,0.7549,alien1,TRUE,2,0.606556108,128,1,0.7,m,1.445,0,277,277,277,1,0.7,0.3,0.4,0.6,TRUE,,,,,,,,,,,,,,,,,,,,,,,,,,,,,,,,,
GOSH_A5,2023-11-09_13h21.50.765,two_step_task_legacy,2022.2.4,Win32,59.34365913,32,learning,1,resources/alien1_norm.png,0.7,resources/alien2_norm.png,0.3,TRUE,TRUE,3,0.93008138,red,x,0.5409,alien1,TRUE,2,0.372628708,129,1,0.7,x,0.4843,0,278,278,278,1,0.7,0.3,0.4,0.6,FALSE,,,,,,,,,,,,,,,,,,,,,,,,,,,,,,,,,
GOSH_A5,2023-11-09_13h21.50.765,two_step_task_legacy,2022.2.4,Win32,59.34365913,32,learning,0,resources/alien3_norm.png,0.4,resources/alien4_norm.png,0.6,TRUE,TRUE,2,0.462752316,purple,x,0.3606,alien4,TRUE,2,0.10245719,130,1,0.6,m,0.7703,0,279,279,279,1,0.7,0.3,0.4,0.6,FALSE,,,,,,,,,,,,,,,,,,,,,,,,,,,,,,,,,
GOSH_A5,2023-11-09_13h21.50.765,two_step_task_legacy,2022.2.4,Win32,59.34365913,32,learning,0,resources/alien4_norm.png,0.6,resources/alien3_norm.png,0.4,TRUE,TRUE,2,0.524740447,purple,x,0.4737,alien4,TRUE,2,0.434563869,131,1,0.6,x,0.5737,0,280,280,280,1,0.7,0.3,0.4,0.6,TRUE,,,,,,,,,,,,,,,,,,,,,,,,,,,,,,,,,
GOSH_A5,2023-11-09_13h21.50.765,two_step_task_legacy,2022.2.4,Win32,59.34365913,32,learning,0,resources/alien3_norm.png,0.4,resources/alien4_norm.png,0.6,TRUE,TRUE,2,0.210206373,purple,x,0.3002,alien4,TRUE,2,0.557356695,132,1,0.6,m,0.6043,0,281,281,281,1,0.7,0.3,0.4,0.6,FALSE,,,,,,,,,,,,,,,,,,,,,,,,,,,,,,,,,
GOSH_A5,2023-11-09_13h21.50.765,two_step_task_legacy,2022.2.4,Win32,59.34365913,32,learning,1,resources/alien1_norm.png,0.7,resources/alien2_norm.png,0.3,TRUE,TRUE,3,0.823818971,red,x,0.2796,alien2,TRUE,3,0.611465663,132,0,0.3,m,0.9893,0,282,282,282,1,0.7,0.3,0.4,0.6,FALSE,,,,,,,,,,,,,,,,,,,,,,,,,,,,,,,,,
GOSH_A5,2023-11-09_13h21.50.765,two_step_task_legacy,2022.2.4,Win32,59.34365913,32,learning,1,resources/alien2_norm.png,0.3,resources/alien1_norm.png,0.7,TRUE,TRUE,3,0.943496555,red,x,0.3479,alien2,TRUE,2,0.161329182,133,1,0.3,x,0.734,0,283,283,283,1,0.7,0.3,0.4,0.6,TRUE,,,,,,,,,,,,,,,,,,,,,,,,,,,,,,,,,
GOSH_A5,2023-11-09_13h21.50.765,two_step_task_legacy,2022.2.4,Win32,59.34365913,32,learning,1,resources/alien2_norm.png,0.3,resources/alien1_norm.png,0.7,TRUE,TRUE,3,0.875964191,red,x,0.3066,alien2,TRUE,3,0.455987661,133,0,0.3,x,0.5101,0,284,284,284,1,0.7,0.3,0.4,0.6,TRUE,,,,,,,,,,,,,,,,,,,,,,,,,,,,,,,,,
GOSH_A5,2023-11-09_13h21.50.765,two_step_task_legacy,2022.2.4,Win32,59.34365913,32,learning,0,resources/alien4_norm.png,0.6,resources/alien3_norm.png,0.4,TRUE,TRUE,2,0.344736671,purple,x,0.3507,alien4,TRUE,2,0.14535964,134,1,0.6,x,0.3385,0,285,285,285,1,0.7,0.3,0.4,0.6,TRUE,,,,,,,,,,,,,,,,,,,,,,,,,,,,,,,,,
GOSH_A5,2023-11-09_13h21.50.765,two_step_task_legacy,2022.2.4,Win32,59.34365913,32,learning,0,resources/alien3_norm.png,0.4,resources/alien4_norm.png,0.6,TRUE,TRUE,2,0.426387556,purple,x,0.3541,alien4,TRUE,2,0.281286359,135,1,0.6,m,0.551,0,286,286,286,1,0.7,0.3,0.4,0.6,FALSE,,,,,,,,,,,,,,,,,,,,,,,,,,,,,,,,,
GOSH_A5,2023-11-09_13h21.50.765,two_step_task_legacy,2022.2.4,Win32,59.34365913,32,learning,1,resources/alien1_norm.png,0.7,resources/alien2_norm.png,0.3,TRUE,TRUE,3,0.771201715,red,x,0.4582,alien2,TRUE,3,0.852045458,135,0,0.3,m,0.8701,0,287,287,287,1,0.7,0.3,0.4,0.6,FALSE,,,,,,,,,,,,,,,,,,,,,,,,,,,,,,,,,
GOSH_A5,2023-11-09_13h21.50.765,two_step_task_legacy,2022.2.4,Win32,59.34365913,32,learning,0,resources/alien4_norm.png,0.6,resources/alien3_norm.png,0.4,TRUE,TRUE,2,0.44769018,purple,x,0.304,alien4,TRUE,2,0.404780295,136,1,0.6,x,0.8282,0,288,288,288,1,0.7,0.3,0.4,0.6,TRUE,,,,,,,,,,,,,,,,,,,,,,,,,,,,,,,,,
GOSH_A5,2023-11-09_13h21.50.765,two_step_task_legacy,2022.2.4,Win32,59.34365913,32,learning,0,resources/alien4_norm.png,0.6,resources/alien3_norm.png,0.4,TRUE,TRUE,2,0.512543642,purple,x,0.338,alien4,TRUE,2,0.509620357,137,1,0.6,x,0.489,0,289,289,289,1,0.7,0.3,0.4,0.6,TRUE,,,,,,,,,,,,,,,,,,,,,,,,,,,,,,,,,
GOSH_A5,2023-11-09_13h21.50.765,two_step_task_legacy,2022.2.4,Win32,59.34365913,32,learning,0,resources/alien3_norm.png,0.4,resources/alien4_norm.png,0.6,TRUE,TRUE,2,0.239745049,purple,x,0.3755,alien4,TRUE,2,0.466526959,138,1,0.6,m,0.6009,0,290,290,290,1,0.7,0.3,0.4,0.6,FALSE,,,,,,,,,,,,,,,,,,,,,,,,,,,,,,,,,
