participant,date,expName,psychopyVersion,OS,frameRate,payoff_list,phase,rare_transition,left_alien,left_probabilty,right_alien,right_probabilty,select_sp,show_alien,rocket_trans,rand_sp,planet,key_resp_exp.keys,key_resp_exp.rt,chosen_alien,select_alien,transmoney,rand_money,totalgold,trialgain,probs,key_resp_exp_alien.keys,key_resp_exp_alien.rt,loop_exp.thisRepN,loop_exp.thisTrialN,loop_exp.thisN,loop_exp.thisIndex,loop_exp.ran,p1,p2,p3,p4,flip_sides,static_probability_left,static_probability_right,key_resp_probe.keys,key_resp_probe.rt,accuracy,probe_loop.thisRepN,probe_loop.thisTrialN,probe_loop.thisN,probe_loop.thisIndex,probe_loop.ran,probe_la,probe_ra,key_resp.keys,key_resp.rt,slider.response,slider.rt,post_loop.thisRepN,post_loop.thisTrialN,post_loop.thisN,post_loop.thisIndex,post_loop.ran,text_up,pos_text_up,text_down,pos_img_left_up,left_up_img,right_up_img,left_down_img_1,left_down_img_2,right_down_img_1,right_down_img_2,size,show_slider
GOSH_A7,2023-11-10_09h55.36.137,two_step_task_legacy,2022.2.4,Win32,59.94844434,,,,,,,,,,,,,,,,,,,,,,,,,,,,,,,,,,,,,,,,,,,,,,,,,,,,,,,,,,,,,,,,,,
GOSH_A7,2023-11-10_09h55.36.137,two_step_task_legacy,2022.2.4,Win32,59.94844434,,,,,,,,,,,,,,,,,,,,,,,,,,,,,,,,,,,,,,,,,,,,,,,,,,,,,,,,,,,,,,,,,,
GOSH_A7,2023-11-10_09h55.36.137,two_step_task_legacy,2022.2.4,Win32,59.94844434,,,,,,,,,,,,,,,,,,,,,,,,,,,,,,,,,,,,,,,,,,,,,,,,,,,,,,,,,,,,,,,,,,
GOSH_A7,2023-11-10_09h55.36.137,two_step_task_legacy,2022.2.4,Win32,59.94844434,,,,,,,,,,,,,,,,,,,,,,,,,,,,,,,,,,,,,,,,,,,,,,,,,,,,,,,,,,,,,,,,,,
GOSH_A7,2023-11-10_09h55.36.137,two_step_task_legacy,2022.2.4,Win32,59.94844434,,,,,,,,,,,,,,,,,,,,,,,,,,,,,,,,,,,,,,,,,,,,,,,,,,,,,,,,,,,,,,,,,,
GOSH_A7,2023-11-10_09h55.36.137,two_step_task_legacy,2022.2.4,Win32,59.94844434,,,,,,,,,,,,,,,,,,,,,,,,,,,,,,,,,,,,,,,,,,,,,,,,,,,,,,,,,,,,,,,,,,
GOSH_A7,2023-11-10_09h55.36.137,two_step_task_legacy,2022.2.4,Win32,59.94844434,,,,,,,,,,,,,,,,,,,,,,,,,,,,,,,,,,,,,,,,,,,,,,,,,,,,,,,,,,,,,,,,,,
GOSH_A7,2023-11-10_09h55.36.137,two_step_task_legacy,2022.2.4,Win32,59.94844434,,,,,,,,,,,,,,,,,,,,,,,,,,,,,,,,,,,,,,,,,,,,,,,,,,,,,,,,,,,,,,,,,,
GOSH_A7,2023-11-10_09h55.36.137,two_step_task_legacy,2022.2.4,Win32,59.94844434,,,,,,,,,,,,,,,,,,,,,,,,,,,,,,,,,,,,,,,,,,,,,,,,,,,,,,,,,,,,,,,,,,
GOSH_A7,2023-11-10_09h55.36.137,two_step_task_legacy,2022.2.4,Win32,59.94844434,,,,,,,,,,,,,,,,,,,,,,,,,,,,,,,,,,,,,,,,,,,,,,,,,,,,,,,,,,,,,,,,,,
GOSH_A7,2023-11-10_09h55.36.137,two_step_task_legacy,2022.2.4,Win32,59.94844434,,,,,,,,,,,,,,,,,,,,,,,,,,,,,,,,,,,,,,,,,,,,,,,,,,,,,,,,,,,,,,,,,,
GOSH_A7,2023-11-10_09h55.36.137,two_step_task_legacy,2022.2.4,Win32,59.94844434,22,learning,0,resources/alien3_norm.png,0.684167385,resources/alien4_norm.png,0.574881385,TRUE,TRUE,2,0.183946834,purple,x,1.8225,alien3,TRUE,3,0.825719751,0,0,0.684167385,x,1.2711,0,0,0,0,1,0.601195094,0.412920416,0.684167385,0.574881385,FALSE,,,,,,,,,,,,,,,,,,,,,,,,,,,,,,,,,
GOSH_A7,2023-11-10_09h55.36.137,two_step_task_legacy,2022.2.4,Win32,59.94844434,22,learning,0,resources/alien3_norm.png,0.686024818,resources/alien4_norm.png,0.598570502,TRUE,TRUE,2,0.05555343,purple,x,1.1104,alien3,TRUE,2,0.080421184,1,1,0.686024818,x,1.5813,0,1,1,1,1,0.625745146,0.384635186,0.686024818,0.598570502,FALSE,,,,,,,,,,,,,,,,,,,,,,,,,,,,,,,,,
GOSH_A7,2023-11-10_09h55.36.137,two_step_task_legacy,2022.2.4,Win32,59.94844434,22,learning,1,resources/alien1_norm.png,0.607315968,resources/alien2_norm.png,0.369840214,TRUE,TRUE,3,0.879868028,red,x,0.9549,alien2,TRUE,3,0.546794831,1,0,0.369840214,m,2.4281,0,2,2,2,1,0.607315968,0.369840214,0.644881976,0.638671366,FALSE,,,,,,,,,,,,,,,,,,,,,,,,,,,,,,,,,
GOSH_A7,2023-11-10_09h55.36.137,two_step_task_legacy,2022.2.4,Win32,59.94844434,22,learning,0,resources/alien4_norm.png,0.581962699,resources/alien3_norm.png,0.634096222,TRUE,TRUE,2,0.515716545,purple,x,0.7961,alien3,TRUE,2,0.547390761,2,1,0.634096222,m,1.1061,0,3,3,3,1,0.553970902,0.370949282,0.634096222,0.581962699,TRUE,,,,,,,,,,,,,,,,,,,,,,,,,,,,,,,,,
GOSH_A7,2023-11-10_09h55.36.137,two_step_task_legacy,2022.2.4,Win32,59.94844434,22,learning,1,resources/alien2_norm.png,0.403833123,resources/alien1_norm.png,0.531032286,TRUE,TRUE,3,0.996403571,red,x,0.7061,alien1,TRUE,3,0.927739336,2,0,0.531032286,m,1.9878,0,4,4,4,1,0.531032286,0.403833123,0.641581245,0.574748429,TRUE,,,,,,,,,,,,,,,,,,,,,,,,,,,,,,,,,
GOSH_A7,2023-11-10_09h55.36.137,two_step_task_legacy,2022.2.4,Win32,59.94844434,22,learning,0,resources/alien3_norm.png,0.653289635,resources/alien4_norm.png,0.5733101,TRUE,TRUE,2,0.023908863,purple,x,0.7785,alien3,TRUE,2,0.414832176,3,1,0.653289635,x,0.7033,0,5,5,5,1,0.567657882,0.413108418,0.653289635,0.5733101,FALSE,,,,,,,,,,,,,,,,,,,,,,,,,,,,,,,,,
GOSH_A7,2023-11-10_09h55.36.137,two_step_task_legacy,2022.2.4,Win32,59.94844434,22,learning,0,resources/alien3_norm.png,0.710266348,resources/alien4_norm.png,0.526958851,TRUE,TRUE,2,0.079016026,purple,x,0.6878,alien3,TRUE,2,0.00931829,4,1,0.710266348,x,0.6909,0,6,6,6,1,0.583224272,0.425080565,0.710266348,0.526958851,FALSE,,,,,,,,,,,,,,,,,,,,,,,,,,,,,,,,,
GOSH_A7,2023-11-10_09h55.36.137,two_step_task_legacy,2022.2.4,Win32,59.94844434,22,learning,0,resources/alien4_norm.png,0.480861246,resources/alien3_norm.png,0.713974974,TRUE,TRUE,2,0.022477994,purple,x,0.6098,alien3,TRUE,2,0.060017113,5,1,0.713974974,m,0.9963,0,7,7,7,1,0.611992163,0.442857993,0.713974974,0.480861246,TRUE,,,,,,,,,,,,,,,,,,,,,,,,,,,,,,,,,
GOSH_A7,2023-11-10_09h55.36.137,two_step_task_legacy,2022.2.4,Win32,59.94844434,22,learning,0,resources/alien3_norm.png,0.7109314,resources/alien4_norm.png,0.461218259,TRUE,TRUE,2,0.370357553,purple,x,0.5871,alien3,TRUE,3,0.974436362,5,0,0.7109314,x,0.6429,0,8,8,8,1,0.612740558,0.431833253,0.7109314,0.461218259,FALSE,,,,,,,,,,,,,,,,,,,,,,,,,,,,,,,,,
GOSH_A7,2023-11-10_09h55.36.137,two_step_task_legacy,2022.2.4,Win32,59.94844434,22,learning,0,resources/alien4_norm.png,0.482120856,resources/alien3_norm.png,0.702346871,TRUE,TRUE,2,0.095236987,purple,x,0.7949,alien3,TRUE,3,0.971449626,5,0,0.702346871,m,0.99,0,9,9,9,1,0.608500544,0.441677248,0.702346871,0.482120856,TRUE,,,,,,,,,,,,,,,,,,,,,,,,,,,,,,,,,
GOSH_A7,2023-11-10_09h55.36.137,two_step_task_legacy,2022.2.4,Win32,59.94844434,22,learning,0,resources/alien2_norm.png,0.482625454,resources/alien1_norm.png,0.576141425,TRUE,TRUE,3,0.063277953,red,m,1.087,alien1,TRUE,2,0.368935313,6,1,0.576141425,m,2.19,0,10,10,10,1,0.576141425,0.482625454,0.67633549,0.532346574,TRUE,,,,,,,,,,,,,,,,,,,,,,,,,,,,,,,,,
GOSH_A7,2023-11-10_09h55.36.137,two_step_task_legacy,2022.2.4,Win32,59.94844434,22,learning,0,resources/alien2_norm.png,0.493435168,resources/alien1_norm.png,0.568074544,TRUE,TRUE,3,0.342271102,red,m,0.7989,alien2,TRUE,3,0.515540903,6,0,0.493435168,x,2.1156,0,11,11,11,1,0.568074544,0.493435168,0.664063745,0.561189193,TRUE,,,,,,,,,,,,,,,,,,,,,,,,,,,,,,,,,
GOSH_A7,2023-11-10_09h55.36.137,two_step_task_legacy,2022.2.4,Win32,59.94844434,22,learning,0,resources/alien2_norm.png,0.510599306,resources/alien1_norm.png,0.580926918,TRUE,TRUE,3,0.697805691,red,m,0.774,alien1,TRUE,2,0.284038243,7,1,0.580926918,m,0.7015,0,12,12,12,1,0.580926918,0.510599306,0.672411387,0.548431613,TRUE,,,,,,,,,,,,,,,,,,,,,,,,,,,,,,,,,
GOSH_A7,2023-11-10_09h55.36.137,two_step_task_legacy,2022.2.4,Win32,59.94844434,22,learning,0,resources/alien2_norm.png,0.440226577,resources/alien1_norm.png,0.600410731,TRUE,TRUE,3,0.228826612,red,m,0.5894,alien1,TRUE,2,0.481705432,8,1,0.600410731,m,0.6378,0,13,13,13,1,0.600410731,0.440226577,0.663587653,0.549136269,TRUE,,,,,,,,,,,,,,,,,,,,,,,,,,,,,,,,,
GOSH_A7,2023-11-10_09h55.36.137,two_step_task_legacy,2022.2.4,Win32,59.94844434,22,learning,0,resources/alien1_norm.png,0.611788063,resources/alien2_norm.png,0.418298082,TRUE,TRUE,3,0.663396586,red,m,0.6212,alien1,TRUE,2,0.122244335,9,1,0.611788063,x,0.8427,0,14,14,14,1,0.611788063,0.418298082,0.666002255,0.524244528,FALSE,,,,,,,,,,,,,,,,,,,,,,,,,,,,,,,,,
GOSH_A7,2023-11-10_09h55.36.137,two_step_task_legacy,2022.2.4,Win32,59.94844434,22,learning,1,resources/alien3_norm.png,0.677601938,resources/alien4_norm.png,0.531921129,TRUE,TRUE,2,0.946079525,purple,m,0.6026,alien4,TRUE,2,0.426059902,10,1,0.531921129,m,2.4671,0,15,15,15,1,0.598923528,0.389234347,0.677601938,0.531921129,FALSE,,,,,,,,,,,,,,,,,,,,,,,,,,,,,,,,,
GOSH_A7,2023-11-10_09h55.36.137,two_step_task_legacy,2022.2.4,Win32,59.94844434,22,learning,0,resources/alien1_norm.png,0.573752737,resources/alien2_norm.png,0.442467063,TRUE,TRUE,3,0.498500213,red,m,0.7711,alien1,TRUE,2,0.110302217,11,1,0.573752737,x,0.6593,0,16,16,16,1,0.573752737,0.442467063,0.658528817,0.532800124,FALSE,,,,,,,,,,,,,,,,,,,,,,,,,,,,,,,,,
GOSH_A7,2023-11-10_09h55.36.137,two_step_task_legacy,2022.2.4,Win32,59.94844434,22,learning,0,resources/alien1_norm.png,0.566603312,resources/alien2_norm.png,0.428427973,TRUE,TRUE,3,0.446706542,red,m,0.553,alien1,TRUE,3,0.783594567,11,0,0.566603312,x,0.6494,0,17,17,17,1,0.566603312,0.428427973,0.631175471,0.552412586,FALSE,,,,,,,,,,,,,,,,,,,,,,,,,,,,,,,,,
GOSH_A7,2023-11-10_09h55.36.137,two_step_task_legacy,2022.2.4,Win32,59.94844434,22,learning,0,resources/alien3_norm.png,0.604740096,resources/alien4_norm.png,0.565590497,TRUE,TRUE,2,0.270458817,purple,x,0.7619,alien4,TRUE,3,0.869518915,11,0,0.565590497,m,0.9559,0,18,18,18,1,0.582114013,0.425646271,0.604740096,0.565590497,FALSE,,,,,,,,,,,,,,,,,,,,,,,,,,,,,,,,,
GOSH_A7,2023-11-10_09h55.36.137,two_step_task_legacy,2022.2.4,Win32,59.94844434,22,learning,0,resources/alien4_norm.png,0.567031065,resources/alien3_norm.png,0.572334771,TRUE,TRUE,2,0.396956801,purple,x,0.861,alien3,TRUE,2,0.265767455,12,1,0.572334771,m,0.8565,0,19,19,19,1,0.561351389,0.373328893,0.572334771,0.567031065,TRUE,,,,,,,,,,,,,,,,,,,,,,,,,,,,,,,,,
GOSH_A7,2023-11-10_09h55.36.137,two_step_task_legacy,2022.2.4,Win32,59.94844434,22,learning,0,resources/alien3_norm.png,0.559110428,resources/alien4_norm.png,0.54814434,TRUE,TRUE,2,0.230718625,purple,x,0.4209,alien3,TRUE,3,0.605525242,12,0,0.559110428,x,0.7002,0,20,20,20,1,0.600913787,0.418292814,0.559110428,0.54814434,FALSE,,,,,,,,,,,,,,,,,,,,,,,,,,,,,,,,,
GOSH_A7,2023-11-10_09h55.36.137,two_step_task_legacy,2022.2.4,Win32,59.94844434,22,learning,0,resources/alien1_norm.png,0.583272345,resources/alien2_norm.png,0.422500338,TRUE,TRUE,3,0.517981069,red,m,0.651,alien1,TRUE,2,0.238678948,13,1,0.583272345,x,0.9131,0,21,21,21,1,0.583272345,0.422500338,0.568809314,0.566532625,FALSE,,,,,,,,,,,,,,,,,,,,,,,,,,,,,,,,,
GOSH_A7,2023-11-10_09h55.36.137,two_step_task_legacy,2022.2.4,Win32,59.94844434,22,learning,0,resources/alien2_norm.png,0.394003844,resources/alien1_norm.png,0.609961034,TRUE,TRUE,3,0.42586861,red,m,0.6023,alien1,TRUE,2,0.526345353,14,1,0.609961034,m,0.6708,0,22,22,22,1,0.609961034,0.394003844,0.55652811,0.561719482,TRUE,,,,,,,,,,,,,,,,,,,,,,,,,,,,,,,,,
GOSH_A7,2023-11-10_09h55.36.137,two_step_task_legacy,2022.2.4,Win32,59.94844434,22,learning,0,resources/alien2_norm.png,0.394651748,resources/alien1_norm.png,0.590272679,TRUE,TRUE,3,0.607444577,red,m,0.5379,alien1,TRUE,2,0.043609629,15,1,0.590272679,m,0.7522,0,23,23,23,1,0.590272679,0.394651748,0.555724238,0.544931665,TRUE,,,,,,,,,,,,,,,,,,,,,,,,,,,,,,,,,
GOSH_A7,2023-11-10_09h55.36.137,two_step_task_legacy,2022.2.4,Win32,59.94844434,22,learning,1,resources/alien3_norm.png,0.576639227,resources/alien4_norm.png,0.55069953,TRUE,TRUE,2,0.867661513,purple,m,0.6196,alien3,TRUE,3,0.698277999,15,0,0.576639227,x,1.1656,0,24,24,24,1,0.605617399,0.431176562,0.576639227,0.55069953,FALSE,,,,,,,,,,,,,,,,,,,,,,,,,,,,,,,,,
GOSH_A7,2023-11-10_09h55.36.137,two_step_task_legacy,2022.2.4,Win32,59.94844434,22,learning,0,resources/alien1_norm.png,0.613091185,resources/alien2_norm.png,0.420786543,TRUE,TRUE,3,0.576861858,red,m,0.5476,alien1,TRUE,2,0.351960836,16,1,0.613091185,x,0.8259,0,25,25,25,1,0.613091185,0.420786543,0.557257773,0.534624757,FALSE,,,,,,,,,,,,,,,,,,,,,,,,,,,,,,,,,
GOSH_A7,2023-11-10_09h55.36.137,two_step_task_legacy,2022.2.4,Win32,59.94844434,22,learning,0,resources/alien2_norm.png,0.450532133,resources/alien1_norm.png,0.595872609,TRUE,TRUE,3,0.484963859,red,m,0.5209,alien1,TRUE,2,0.446888963,17,1,0.595872609,m,0.7091,0,26,26,26,1,0.595872609,0.450532133,0.576094467,0.545850614,TRUE,,,,,,,,,,,,,,,,,,,,,,,,,,,,,,,,,
GOSH_A7,2023-11-10_09h55.36.137,two_step_task_legacy,2022.2.4,Win32,59.94844434,22,learning,1,resources/alien3_norm.png,0.592199407,resources/alien4_norm.png,0.511001288,TRUE,TRUE,2,0.795238825,purple,m,0.5555,alien4,TRUE,3,0.714643485,17,0,0.511001288,m,1.0383,0,27,27,27,1,0.643406653,0.477668773,0.592199407,0.511001288,FALSE,,,,,,,,,,,,,,,,,,,,,,,,,,,,,,,,,
GOSH_A7,2023-11-10_09h55.36.137,two_step_task_legacy,2022.2.4,Win32,59.94844434,22,learning,1,resources/alien3_norm.png,0.634639671,resources/alien4_norm.png,0.503306501,TRUE,TRUE,2,0.855635244,purple,m,0.6231,alien3,TRUE,3,0.925805986,17,0,0.634639671,x,2.4355,0,28,28,28,1,0.627060866,0.482589761,0.634639671,0.503306501,FALSE,,,,,,,,,,,,,,,,,,,,,,,,,,,,,,,,,
GOSH_A7,2023-11-10_09h55.36.137,two_step_task_legacy,2022.2.4,Win32,59.94844434,22,learning,0,resources/alien2_norm.png,0.473630358,resources/alien1_norm.png,0.659503493,TRUE,TRUE,3,0.419671102,red,m,0.5501,alien1,TRUE,3,0.711727522,17,0,0.659503493,m,0.7518,0,29,29,29,1,0.659503493,0.473630358,0.636367601,0.500905699,TRUE,,,,,,,,,,,,,,,,,,,,,,,,,,,,,,,,,
GOSH_A7,2023-11-10_09h55.36.137,two_step_task_legacy,2022.2.4,Win32,59.94844434,22,learning,0,resources/alien1_norm.png,0.633289649,resources/alien2_norm.png,0.501315139,TRUE,TRUE,3,0.204408754,red,m,0.8365,alien2,TRUE,3,0.91446035,17,0,0.501315139,m,0.8403,0,30,30,30,1,0.633289649,0.501315139,0.637914928,0.501224844,FALSE,,,,,,,,,,,,,,,,,,,,,,,,,,,,,,,,,
GOSH_A7,2023-11-10_09h55.36.137,two_step_task_legacy,2022.2.4,Win32,59.94844434,22,learning,1,resources/alien1_norm.png,0.601309191,resources/alien2_norm.png,0.486335384,TRUE,TRUE,3,0.996707217,red,x,1.6471,alien1,TRUE,2,0.279836289,18,1,0.601309191,x,1.246,0,31,31,31,1,0.601309191,0.486335384,0.634843763,0.49511204,FALSE,,,,,,,,,,,,,,,,,,,,,,,,,,,,,,,,,
GOSH_A7,2023-11-10_09h55.36.137,two_step_task_legacy,2022.2.4,Win32,59.94844434,22,learning,1,resources/alien3_norm.png,0.625739977,resources/alien4_norm.png,0.492316248,TRUE,TRUE,2,0.738541012,purple,m,0.5821,alien4,TRUE,3,0.52943915,18,0,0.492316248,m,1.4873,0,32,32,32,1,0.601010443,0.467762774,0.625739977,0.492316248,FALSE,,,,,,,,,,,,,,,,,,,,,,,,,,,,,,,,,
GOSH_A7,2023-11-10_09h55.36.137,two_step_task_legacy,2022.2.4,Win32,59.94844434,22,learning,1,resources/alien4_norm.png,0.545653013,resources/alien3_norm.png,0.615828505,TRUE,TRUE,2,0.945154166,purple,m,0.6347,alien3,TRUE,2,0.272510076,19,1,0.615828505,m,2.1339,0,33,33,33,1,0.622204761,0.465440023,0.615828505,0.545653013,TRUE,,,,,,,,,,,,,,,,,,,,,,,,,,,,,,,,,
GOSH_A7,2023-11-10_09h55.36.137,two_step_task_legacy,2022.2.4,Win32,59.94844434,22,learning,1,resources/alien2_norm.png,0.493981228,resources/alien1_norm.png,0.627316779,TRUE,TRUE,3,0.710304023,red,x,0.7441,alien1,TRUE,2,0.515509421,20,1,0.627316779,m,1.0225,0,34,34,34,1,0.627316779,0.493981228,0.59000377,0.495749277,TRUE,,,,,,,,,,,,,,,,,,,,,,,,,,,,,,,,,
GOSH_A7,2023-11-10_09h55.36.137,two_step_task_legacy,2022.2.4,Win32,59.94844434,22,learning,1,resources/alien4_norm.png,0.524611694,resources/alien3_norm.png,0.553937559,TRUE,TRUE,2,0.76507401,purple,m,0.7105,alien3,TRUE,2,0.016920122,21,1,0.553937559,m,1.4666,0,35,35,35,1,0.598288248,0.477218043,0.553937559,0.524611694,TRUE,,,,,,,,,,,,,,,,,,,,,,,,,,,,,,,,,
GOSH_A7,2023-11-10_09h55.36.137,two_step_task_legacy,2022.2.4,Win32,59.94844434,22,learning,1,resources/alien2_norm.png,0.493000476,resources/alien1_norm.png,0.614262045,TRUE,TRUE,3,0.903071538,red,x,0.5837,alien1,TRUE,2,0.498841955,22,1,0.614262045,m,1.1208,0,36,36,36,1,0.614262045,0.493000476,0.56908871,0.543066073,TRUE,,,,,,,,,,,,,,,,,,,,,,,,,,,,,,,,,
GOSH_A7,2023-11-10_09h55.36.137,two_step_task_legacy,2022.2.4,Win32,59.94844434,22,learning,0,resources/alien4_norm.png,0.50431812,resources/alien3_norm.png,0.558161717,TRUE,TRUE,2,0.680412676,purple,x,0.4119,alien3,TRUE,3,0.652812178,22,0,0.558161717,m,0.6227,0,37,37,37,1,0.604854621,0.477881014,0.558161717,0.50431812,TRUE,,,,,,,,,,,,,,,,,,,,,,,,,,,,,,,,,
GOSH_A7,2023-11-10_09h55.36.137,two_step_task_legacy,2022.2.4,Win32,59.94844434,22,learning,0,resources/alien2_norm.png,0.534531278,resources/alien1_norm.png,0.588574075,TRUE,TRUE,3,0.081330194,red,m,0.6345,alien1,TRUE,3,0.817685173,22,0,0.588574075,m,0.6036,0,38,38,38,1,0.588574075,0.534531278,0.530772143,0.52797049,TRUE,,,,,,,,,,,,,,,,,,,,,,,,,,,,,,,,,
GOSH_A7,2023-11-10_09h55.36.137,two_step_task_legacy,2022.2.4,Win32,59.94844434,22,learning,0,resources/alien1_norm.png,0.595909038,resources/alien2_norm.png,0.531132777,TRUE,TRUE,3,0.498295751,red,m,1.4946,alien1,TRUE,3,0.604537273,22,0,0.595909038,x,0.6956,0,39,39,39,1,0.595909038,0.531132777,0.540735318,0.557222525,FALSE,,,,,,,,,,,,,,,,,,,,,,,,,,,,,,,,,
GOSH_A7,2023-11-10_09h55.36.137,two_step_task_legacy,2022.2.4,Win32,59.94844434,22,learning,1,resources/alien1_norm.png,0.574771467,resources/alien2_norm.png,0.540223528,TRUE,TRUE,3,0.969516529,red,x,0.5955,alien2,TRUE,2,0.228060883,23,1,0.540223528,m,1.8957,0,40,40,40,1,0.574771467,0.540223528,0.494666279,0.583638711,FALSE,,,,,,,,,,,,,,,,,,,,,,,,,,,,,,,,,
GOSH_A7,2023-11-10_09h55.36.137,two_step_task_legacy,2022.2.4,Win32,59.94844434,22,learning,0,resources/alien4_norm.png,0.5945859,resources/alien3_norm.png,0.50627781,TRUE,TRUE,2,0.565711775,purple,x,0.6458,alien3,TRUE,2,0.504208943,24,1,0.50627781,m,0.7538,0,41,41,41,1,0.584272001,0.559165838,0.50627781,0.5945859,TRUE,,,,,,,,,,,,,,,,,,,,,,,,,,,,,,,,,
GOSH_A7,2023-11-10_09h55.36.137,two_step_task_legacy,2022.2.4,Win32,59.94844434,22,learning,0,resources/alien4_norm.png,0.640132819,resources/alien3_norm.png,0.516590823,TRUE,TRUE,2,0.17426744,purple,x,0.3115,alien3,TRUE,3,0.93315974,24,0,0.516590823,m,0.7803,0,42,42,42,1,0.630034319,0.617175123,0.516590823,0.640132819,TRUE,,,,,,,,,,,,,,,,,,,,,,,,,,,,,,,,,
GOSH_A7,2023-11-10_09h55.36.137,two_step_task_legacy,2022.2.4,Win32,59.94844434,22,learning,1,resources/alien3_norm.png,0.487932716,resources/alien4_norm.png,0.607580451,TRUE,TRUE,2,0.785091763,purple,m,0.9965,alien3,TRUE,3,0.924674009,24,0,0.487932716,x,2.2419,0,43,43,43,1,0.619075687,0.616003092,0.487932716,0.607580451,FALSE,,,,,,,,,,,,,,,,,,,,,,,,,,,,,,,,,
GOSH_A7,2023-11-10_09h55.36.137,two_step_task_legacy,2022.2.4,Win32,59.94844434,22,learning,0,resources/alien1_norm.png,0.605356515,resources/alien2_norm.png,0.582526972,TRUE,TRUE,3,0.365526614,red,m,0.7759,alien2,TRUE,3,0.958845409,24,0,0.582526972,m,1.0287,0,44,44,44,1,0.605356515,0.582526972,0.519583753,0.572653625,FALSE,,,,,,,,,,,,,,,,,,,,,,,,,,,,,,,,,
GOSH_A7,2023-11-10_09h55.36.137,two_step_task_legacy,2022.2.4,Win32,59.94844434,22,learning,0,resources/alien3_norm.png,0.511061951,resources/alien4_norm.png,0.574858948,TRUE,TRUE,2,0.412104578,purple,x,1.8635,alien4,TRUE,2,0.161307896,25,1,0.574858948,m,0.7338,0,45,45,45,1,0.557081221,0.577200294,0.511061951,0.574858948,FALSE,,,,,,,,,,,,,,,,,,,,,,,,,,,,,,,,,
GOSH_A7,2023-11-10_09h55.36.137,two_step_task_legacy,2022.2.4,Win32,59.94844434,22,learning,0,resources/alien3_norm.png,0.532871987,resources/alien4_norm.png,0.595061916,TRUE,TRUE,2,0.489458232,purple,x,0.451,alien4,TRUE,2,0.032802506,26,1,0.595061916,m,0.717,0,46,46,46,1,0.555291304,0.598845262,0.532871987,0.595061916,FALSE,,,,,,,,,,,,,,,,,,,,,,,,,,,,,,,,,
GOSH_A7,2023-11-10_09h55.36.137,two_step_task_legacy,2022.2.4,Win32,59.94844434,22,learning,0,resources/alien3_norm.png,0.529726075,resources/alien4_norm.png,0.585828111,TRUE,TRUE,2,0.627157192,purple,x,0.2941,alien4,TRUE,2,0.183139506,27,1,0.585828111,m,0.7627,0,47,47,47,1,0.578601924,0.598532069,0.529726075,0.585828111,FALSE,,,,,,,,,,,,,,,,,,,,,,,,,,,,,,,,,
GOSH_A7,2023-11-10_09h55.36.137,two_step_task_legacy,2022.2.4,Win32,59.94844434,22,learning,0,resources/alien4_norm.png,0.573653694,resources/alien3_norm.png,0.558730333,TRUE,TRUE,2,0.263835288,purple,x,0.288,alien4,TRUE,2,0.378341324,28,1,0.573653694,x,0.662,0,48,48,48,1,0.542249819,0.586538679,0.558730333,0.573653694,TRUE,,,,,,,,,,,,,,,,,,,,,,,,,,,,,,,,,
GOSH_A7,2023-11-10_09h55.36.137,two_step_task_legacy,2022.2.4,Win32,59.94844434,22,learning,0,resources/alien3_norm.png,0.622833908,resources/alien4_norm.png,0.600621292,TRUE,TRUE,2,0.594247428,purple,x,0.2658,alien4,TRUE,2,0.576816847,29,1,0.600621292,m,0.7711,0,49,49,49,1,0.519538965,0.584343304,0.622833908,0.600621292,FALSE,,,,,,,,,,,,,,,,,,,,,,,,,,,,,,,,,
GOSH_A7,2023-11-10_09h55.36.137,two_step_task_legacy,2022.2.4,Win32,59.94844434,22,learning,0,resources/alien4_norm.png,0.607356483,resources/alien3_norm.png,0.620348506,TRUE,TRUE,2,0.053846124,purple,x,0.3339,alien4,TRUE,2,0.483084309,30,1,0.607356483,x,0.7105,0,50,50,50,1,0.554572557,0.581709677,0.620348506,0.607356483,TRUE,,,,,,,,,,,,,,,,,,,,,,,,,,,,,,,,,
GOSH_A7,2023-11-10_09h55.36.137,two_step_task_legacy,2022.2.4,Win32,59.94844434,22,learning,0,resources/alien4_norm.png,0.607009894,resources/alien3_norm.png,0.6031703,TRUE,TRUE,2,0.683263999,purple,x,0.3206,alien4,TRUE,2,0.103973605,31,1,0.607009894,x,0.5435,0,51,51,51,1,0.547889004,0.612718726,0.6031703,0.607009894,TRUE,,,,,,,,,,,,,,,,,,,,,,,,,,,,,,,,,
GOSH_A7,2023-11-10_09h55.36.137,two_step_task_legacy,2022.2.4,Win32,59.94844434,22,learning,1,resources/alien1_norm.png,0.544060582,resources/alien2_norm.png,0.595407189,TRUE,TRUE,3,0.867072155,red,x,0.2696,alien1,TRUE,2,0.389267283,32,1,0.544060582,x,2.8236,0,52,52,52,1,0.544060582,0.595407189,0.557769273,0.588840226,FALSE,,,,,,,,,,,,,,,,,,,,,,,,,,,,,,,,,
GOSH_A7,2023-11-10_09h55.36.137,two_step_task_legacy,2022.2.4,Win32,59.94844434,22,learning,0,resources/alien3_norm.png,0.542082465,resources/alien4_norm.png,0.626166645,TRUE,TRUE,2,0.628414049,purple,x,0.365,alien4,TRUE,3,0.762406588,32,0,0.626166645,m,0.8375,0,53,53,53,1,0.545266218,0.593072845,0.542082465,0.626166645,FALSE,,,,,,,,,,,,,,,,,,,,,,,,,,,,,,,,,
GOSH_A7,2023-11-10_09h55.36.137,two_step_task_legacy,2022.2.4,Win32,59.94844434,22,learning,0,resources/alien2_norm.png,0.617187035,resources/alien1_norm.png,0.533636761,TRUE,TRUE,3,0.391202811,red,m,0.4728,alien1,TRUE,2,0.293934694,33,1,0.533636761,m,0.6845,0,54,54,54,1,0.533636761,0.617187035,0.542691053,0.641639284,TRUE,,,,,,,,,,,,,,,,,,,,,,,,,,,,,,,,,
GOSH_A7,2023-11-10_09h55.36.137,two_step_task_legacy,2022.2.4,Win32,59.94844434,22,learning,0,resources/alien1_norm.png,0.53071874,resources/alien2_norm.png,0.642883939,TRUE,TRUE,3,0.031103988,red,m,0.4686,alien1,TRUE,3,0.934799986,33,0,0.53071874,x,0.6641,0,55,55,55,1,0.53071874,0.642883939,0.540688793,0.613630346,FALSE,,,,,,,,,,,,,,,,,,,,,,,,,,,,,,,,,
GOSH_A7,2023-11-10_09h55.36.137,two_step_task_legacy,2022.2.4,Win32,59.94844434,22,learning,1,resources/alien4_norm.png,0.604506511,resources/alien3_norm.png,0.506133513,TRUE,TRUE,2,0.924084188,purple,m,1.595,alien3,TRUE,2,0.330591958,34,1,0.506133513,m,2.0964,0,56,56,56,1,0.508540082,0.642374716,0.506133513,0.604506511,TRUE,,,,,,,,,,,,,,,,,,,,,,,,,,,,,,,,,
GOSH_A7,2023-11-10_09h55.36.137,two_step_task_legacy,2022.2.4,Win32,59.94844434,22,learning,1,resources/alien2_norm.png,0.646260215,resources/alien1_norm.png,0.519337081,TRUE,TRUE,3,0.884350819,red,x,0.3585,alien2,TRUE,2,0.013567771,35,1,0.646260215,x,2.1878,0,57,57,57,1,0.519337081,0.646260215,0.531679577,0.600516429,TRUE,,,,,,,,,,,,,,,,,,,,,,,,,,,,,,,,,
GOSH_A7,2023-11-10_09h55.36.137,two_step_task_legacy,2022.2.4,Win32,59.94844434,22,learning,1,resources/alien2_norm.png,0.644987866,resources/alien1_norm.png,0.515119314,TRUE,TRUE,3,0.735868378,red,x,0.4319,alien2,TRUE,3,0.828198602,35,0,0.644987866,x,1.3048,0,58,58,58,1,0.515119314,0.644987866,0.525737079,0.596579648,TRUE,,,,,,,,,,,,,,,,,,,,,,,,,,,,,,,,,
GOSH_A7,2023-11-10_09h55.36.137,two_step_task_legacy,2022.2.4,Win32,59.94844434,22,learning,1,resources/alien1_norm.png,0.482207563,resources/alien2_norm.png,0.621644772,TRUE,TRUE,3,0.737817148,red,x,0.3282,alien2,TRUE,2,0.275247238,36,1,0.621644772,m,1.3731,0,59,59,59,1,0.482207563,0.621644772,0.535111942,0.600256718,FALSE,,,,,,,,,,,,,,,,,,,,,,,,,,,,,,,,,
GOSH_A7,2023-11-10_09h55.36.137,two_step_task_legacy,2022.2.4,Win32,59.94844434,22,learning,0,resources/alien3_norm.png,0.514338736,resources/alien4_norm.png,0.607153047,TRUE,TRUE,2,0.593487671,purple,x,0.3167,alien3,TRUE,2,0.284136486,37,1,0.514338736,x,1.0167,0,60,60,60,1,0.450055305,0.66669687,0.514338736,0.607153047,FALSE,,,,,,,,,,,,,,,,,,,,,,,,,,,,,,,,,
GOSH_A7,2023-11-10_09h55.36.137,two_step_task_legacy,2022.2.4,Win32,59.94844434,22,learning,1,resources/alien3_norm.png,0.471642866,resources/alien4_norm.png,0.583823796,TRUE,TRUE,2,0.734269189,purple,m,1.679,alien3,TRUE,3,0.871142408,37,0,0.471642866,x,1.5384,0,61,61,61,1,0.419368289,0.658101899,0.471642866,0.583823796,FALSE,,,,,,,,,,,,,,,,,,,,,,,,,,,,,,,,,
GOSH_A7,2023-11-10_09h55.36.137,two_step_task_legacy,2022.2.4,Win32,59.94844434,22,learning,0,resources/alien2_norm.png,0.679582459,resources/alien1_norm.png,0.476081837,TRUE,TRUE,3,0.20339457,red,m,0.5375,alien2,TRUE,2,0.437855673,38,1,0.679582459,x,0.5424,0,62,62,62,1,0.476081837,0.679582459,0.495383864,0.577391808,TRUE,,,,,,,,,,,,,,,,,,,,,,,,,,,,,,,,,
GOSH_A7,2023-11-10_09h55.36.137,two_step_task_legacy,2022.2.4,Win32,59.94844434,22,learning,0,resources/alien1_norm.png,0.46564135,resources/alien2_norm.png,0.656019472,TRUE,TRUE,3,0.486535337,red,m,0.5573,alien2,TRUE,3,0.759187121,38,0,0.656019472,m,0.7386,0,63,63,63,1,0.46564135,0.656019472,0.492482455,0.584382346,FALSE,,,,,,,,,,,,,,,,,,,,,,,,,,,,,,,,,
GOSH_A7,2023-11-10_09h55.36.137,two_step_task_legacy,2022.2.4,Win32,59.94844434,22,learning,1,resources/alien3_norm.png,0.473090091,resources/alien4_norm.png,0.579903099,TRUE,TRUE,2,0.988032279,purple,m,1.0614,alien4,TRUE,3,0.715809648,38,0,0.579903099,m,2.2969,0,64,64,64,1,0.477315304,0.650679566,0.473090091,0.579903099,FALSE,,,,,,,,,,,,,,,,,,,,,,,,,,,,,,,,,
GOSH_A7,2023-11-10_09h55.36.137,two_step_task_legacy,2022.2.4,Win32,59.94844434,22,learning,1,resources/alien3_norm.png,0.46600528,resources/alien4_norm.png,0.57197952,TRUE,TRUE,2,0.743941779,purple,m,0.4999,alien3,TRUE,3,0.878576745,38,0,0.46600528,x,1.6797,0,65,65,65,1,0.46552265,0.62334515,0.46600528,0.57197952,FALSE,,,,,,,,,,,,,,,,,,,,,,,,,,,,,,,,,
GOSH_A7,2023-11-10_09h55.36.137,two_step_task_legacy,2022.2.4,Win32,59.94844434,22,learning,0,resources/alien1_norm.png,0.475612123,resources/alien2_norm.png,0.625851031,TRUE,TRUE,3,0.234676884,red,m,1.0171,alien1,TRUE,2,0.251088096,39,1,0.475612123,x,0.8268,0,66,66,66,1,0.475612123,0.625851031,0.423812817,0.610089415,FALSE,,,,,,,,,,,,,,,,,,,,,,,,,,,,,,,,,
GOSH_A7,2023-11-10_09h55.36.137,two_step_task_legacy,2022.2.4,Win32,59.94844434,22,learning,0,resources/alien1_norm.png,0.488225722,resources/alien2_norm.png,0.591916813,TRUE,TRUE,3,0.261052638,red,m,0.5842,alien1,TRUE,3,0.813617089,39,0,0.488225722,x,0.4207,0,67,67,67,1,0.488225722,0.591916813,0.389156213,0.604504253,FALSE,,,,,,,,,,,,,,,,,,,,,,,,,,,,,,,,,
GOSH_A7,2023-11-10_09h55.36.137,two_step_task_legacy,2022.2.4,Win32,59.94844434,22,learning,1,resources/alien3_norm.png,0.426911286,resources/alien4_norm.png,0.600400303,TRUE,TRUE,2,0.869253671,purple,m,0.7564,alien3,TRUE,3,0.817238078,39,0,0.426911286,x,1.7602,0,68,68,68,1,0.447473516,0.566650103,0.426911286,0.600400303,FALSE,,,,,,,,,,,,,,,,,,,,,,,,,,,,,,,,,
GOSH_A7,2023-11-10_09h55.36.137,two_step_task_legacy,2022.2.4,Win32,59.94844434,22,learning,1,resources/alien4_norm.png,0.645762646,resources/alien3_norm.png,0.419171163,TRUE,TRUE,2,0.790315363,purple,m,0.5708,alien4,TRUE,3,0.677956905,39,0,0.645762646,x,1.0688,0,69,69,69,1,0.446833039,0.601017704,0.419171163,0.645762646,TRUE,,,,,,,,,,,,,,,,,,,,,,,,,,,,,,,,,
GOSH_A7,2023-11-10_09h55.36.137,two_step_task_legacy,2022.2.4,Win32,59.94844434,22,learning,0,resources/alien1_norm.png,0.46229688,resources/alien2_norm.png,0.577212844,TRUE,TRUE,3,0.037343077,red,m,0.7265,alien2,TRUE,3,0.593848972,39,0,0.577212844,m,1.4207,0,70,70,70,1,0.46229688,0.577212844,0.381881382,0.679798258,FALSE,,,,,,,,,,,,,,,,,,,,,,,,,,,,,,,,,
GOSH_A7,2023-11-10_09h55.36.137,two_step_task_legacy,2022.2.4,Win32,59.94844434,22,learning,0,resources/alien2_norm.png,0.585168326,resources/alien1_norm.png,0.447857256,TRUE,TRUE,3,0.673293858,red,m,0.3791,alien1,TRUE,3,0.710792006,39,0,0.447857256,m,1.0187,0,71,71,71,1,0.447857256,0.585168326,0.372866063,0.744246282,TRUE,,,,,,,,,,,,,,,,,,,,,,,,,,,,,,,,,
GOSH_A7,2023-11-10_09h55.36.137,two_step_task_legacy,2022.2.4,Win32,59.94844434,22,learning,0,resources/alien3_norm.png,0.365658811,resources/alien4_norm.png,0.738925901,TRUE,TRUE,2,0.179265762,purple,x,0.3331,alien3,TRUE,3,0.675750757,39,0,0.365658811,x,0.5262,0,72,72,72,1,0.469156344,0.590253845,0.365658811,0.738925901,FALSE,,,,,,,,,,,,,,,,,,,,,,,,,,,,,,,,,
GOSH_A7,2023-11-10_09h55.36.137,two_step_task_legacy,2022.2.4,Win32,59.94844434,22,learning,0,resources/alien4_norm.png,0.745967699,resources/alien3_norm.png,0.368495441,TRUE,TRUE,2,0.307297326,purple,x,0.6953,alien4,TRUE,3,0.960404884,39,0,0.745967699,x,0.7066,0,73,73,73,1,0.524386296,0.606410566,0.368495441,0.745967699,TRUE,,,,,,,,,,,,,,,,,,,,,,,,,,,,,,,,,
GOSH_A7,2023-11-10_09h55.36.137,two_step_task_legacy,2022.2.4,Win32,59.94844434,22,learning,0,resources/alien1_norm.png,0.546195851,resources/alien2_norm.png,0.610187899,TRUE,TRUE,3,0.04182955,red,m,0.4042,alien1,TRUE,2,0.416852902,40,1,0.546195851,x,0.8071,0,74,74,74,1,0.546195851,0.610187899,0.382592524,0.747056302,FALSE,,,,,,,,,,,,,,,,,,,,,,,,,,,,,,,,,
GOSH_A7,2023-11-10_09h55.36.137,two_step_task_legacy,2022.2.4,Win32,59.94844434,22,learning,0,resources/alien1_norm.png,0.516674318,resources/alien2_norm.png,0.630410906,TRUE,TRUE,3,0.563694231,red,m,0.3848,alien1,TRUE,2,0.331452928,41,1,0.516674318,x,0.4617,0,75,75,75,1,0.516674318,0.630410906,0.365808589,0.727966599,FALSE,,,,,,,,,,,,,,,,,,,,,,,,,,,,,,,,,
GOSH_A7,2023-11-10_09h55.36.137,two_step_task_legacy,2022.2.4,Win32,59.94844434,22,learning,1,resources/alien4_norm.png,0.747496672,resources/alien3_norm.png,0.376049182,TRUE,TRUE,2,0.876411455,purple,m,0.2977,alien3,TRUE,3,0.881813566,41,0,0.376049182,m,1.9404,0,76,76,76,1,0.513333865,0.600336462,0.376049182,0.747496672,TRUE,,,,,,,,,,,,,,,,,,,,,,,,,,,,,,,,,
GOSH_A7,2023-11-10_09h55.36.137,two_step_task_legacy,2022.2.4,Win32,59.94844434,22,learning,0,resources/alien1_norm.png,0.533414093,resources/alien2_norm.png,0.616695744,TRUE,TRUE,3,0.469018993,red,m,0.2809,alien1,TRUE,2,0.329633213,42,1,0.533414093,x,0.55,0,77,77,77,1,0.533414093,0.616695744,0.366792972,0.743468027,FALSE,,,,,,,,,,,,,,,,,,,,,,,,,,,,,,,,,
GOSH_A7,2023-11-10_09h55.36.137,two_step_task_legacy,2022.2.4,Win32,59.94844434,22,learning,0,resources/alien1_norm.png,0.522426186,resources/alien2_norm.png,0.626472856,TRUE,TRUE,3,0.516833384,red,m,0.3158,alien1,TRUE,3,0.696597384,42,0,0.522426186,x,0.4893,0,78,78,78,1,0.522426186,0.626472856,0.342893528,0.729281693,FALSE,,,,,,,,,,,,,,,,,,,,,,,,,,,,,,,,,
GOSH_A7,2023-11-10_09h55.36.137,two_step_task_legacy,2022.2.4,Win32,59.94844434,22,learning,0,resources/alien2_norm.png,0.612363775,resources/alien1_norm.png,0.537512346,TRUE,TRUE,3,0.517957651,red,m,1.2377,alien1,TRUE,3,0.57309969,42,0,0.537512346,m,1.6846,0,79,79,79,1,0.537512346,0.612363775,0.328275201,0.732241262,TRUE,,,,,,,,,,,,,,,,,,,,,,,,,,,,,,,,,
GOSH_A7,2023-11-10_09h55.36.137,two_step_task_legacy,2022.2.4,Win32,59.94844434,22,learning,1,resources/alien4_norm.png,0.703847115,resources/alien3_norm.png,0.339910551,TRUE,TRUE,2,0.995967377,purple,m,0.9671,alien4,TRUE,2,0.185465606,43,1,0.703847115,x,2.0854,0,80,80,80,1,0.564643748,0.646040762,0.339910551,0.703847115,TRUE,,,,,,,,,,,,,,,,,,,,,,,,,,,,,,,,,
GOSH_A7,2023-11-10_09h55.36.137,two_step_task_legacy,2022.2.4,Win32,59.94844434,22,learning,1,resources/alien1_norm.png,0.574339547,resources/alien2_norm.png,0.667820554,TRUE,TRUE,3,0.902855779,red,x,0.389,alien2,TRUE,2,0.259280269,44,1,0.667820554,m,2.2989,0,81,81,81,1,0.574339547,0.667820554,0.355880374,0.713459204,FALSE,,,,,,,,,,,,,,,,,,,,,,,,,,,,,,,,,
GOSH_A7,2023-11-10_09h55.36.137,two_step_task_legacy,2022.2.4,Win32,59.94844434,22,learning,0,resources/alien4_norm.png,0.723108132,resources/alien3_norm.png,0.383992384,TRUE,TRUE,2,0.46480296,purple,x,0.4717,alien4,TRUE,3,0.742181961,44,0,0.723108132,x,1.0858,0,82,82,82,1,0.55697673,0.698602971,0.383992384,0.723108132,TRUE,,,,,,,,,,,,,,,,,,,,,,,,,,,,,,,,,
GOSH_A7,2023-11-10_09h55.36.137,two_step_task_legacy,2022.2.4,Win32,59.94844434,22,learning,1,resources/alien3_norm.png,0.388691416,resources/alien4_norm.png,0.74849031,TRUE,TRUE,2,0.783798339,purple,m,0.3074,alien4,TRUE,2,0.603745811,45,1,0.74849031,m,1.2456,0,83,83,83,1,0.520995768,0.688535499,0.388691416,0.74849031,FALSE,,,,,,,,,,,,,,,,,,,,,,,,,,,,,,,,,
GOSH_A7,2023-11-10_09h55.36.137,two_step_task_legacy,2022.2.4,Win32,59.94844434,22,learning,0,resources/alien1_norm.png,0.560357955,resources/alien2_norm.png,0.710364652,TRUE,TRUE,3,0.584678624,red,m,0.9368,alien2,TRUE,2,0.008353478,46,1,0.710364652,m,0.5696,0,84,84,84,1,0.560357955,0.710364652,0.394471814,0.708470458,FALSE,,,,,,,,,,,,,,,,,,,,,,,,,,,,,,,,,
GOSH_A7,2023-11-10_09h55.36.137,two_step_task_legacy,2022.2.4,Win32,59.94844434,22,learning,1,resources/alien1_norm.png,0.642492048,resources/alien2_norm.png,0.694563603,TRUE,TRUE,3,0.900922947,red,x,0.3434,alien2,TRUE,2,0.051100005,47,1,0.694563603,m,0.6878,0,85,85,85,1,0.642492048,0.694563603,0.366165455,0.701290951,FALSE,,,,,,,,,,,,,,,,,,,,,,,,,,,,,,,,,
GOSH_A7,2023-11-10_09h55.36.137,two_step_task_legacy,2022.2.4,Win32,59.94844434,22,learning,0,resources/alien2_norm.png,0.693119638,resources/alien1_norm.png,0.659827268,TRUE,TRUE,3,0.44890542,red,m,0.2748,alien2,TRUE,2,0.58813106,48,1,0.693119638,x,0.4578,0,86,86,86,1,0.659827268,0.693119638,0.339851899,0.68653895,TRUE,,,,,,,,,,,,,,,,,,,,,,,,,,,,,,,,,
GOSH_A7,2023-11-10_09h55.36.137,two_step_task_legacy,2022.2.4,Win32,59.94844434,22,learning,1,resources/alien4_norm.png,0.714890726,resources/alien3_norm.png,0.344034175,TRUE,TRUE,2,0.953989513,purple,m,0.2834,alien4,TRUE,2,0.211218754,49,1,0.714890726,x,1.0014,0,87,87,87,1,0.662335746,0.693358738,0.344034175,0.714890726,TRUE,,,,,,,,,,,,,,,,,,,,,,,,,,,,,,,,,
GOSH_A7,2023-11-10_09h55.36.137,two_step_task_legacy,2022.2.4,Win32,59.94844434,22,learning,0,resources/alien1_norm.png,0.654953403,resources/alien2_norm.png,0.711283868,TRUE,TRUE,3,0.694730097,red,m,0.4919,alien2,TRUE,2,0.294321513,50,1,0.711283868,m,0.4533,0,88,88,88,1,0.654953403,0.711283868,0.317764846,0.686498284,FALSE,,,,,,,,,,,,,,,,,,,,,,,,,,,,,,,,,
GOSH_A7,2023-11-10_09h55.36.137,two_step_task_legacy,2022.2.4,Win32,59.94844434,22,learning,0,resources/alien2_norm.png,0.696475853,resources/alien1_norm.png,0.616516022,TRUE,TRUE,3,0.699565683,red,m,0.2607,alien2,TRUE,3,0.869672555,50,0,0.696475853,x,0.4912,0,89,89,89,1,0.616516022,0.696475853,0.351001491,0.679595828,TRUE,,,,,,,,,,,,,,,,,,,,,,,,,,,,,,,,,
GOSH_A7,2023-11-10_09h55.36.137,two_step_task_legacy,2022.2.4,Win32,59.94844434,22,learning,0,resources/alien4_norm.png,0.65457047,resources/alien3_norm.png,0.333950803,TRUE,TRUE,2,0.154919182,purple,x,0.3002,alien4,TRUE,2,0.033836477,51,1,0.65457047,x,0.668,0,90,90,90,1,0.617393134,0.712975203,0.333950803,0.65457047,TRUE,,,,,,,,,,,,,,,,,,,,,,,,,,,,,,,,,
GOSH_A7,2023-11-10_09h55.36.137,two_step_task_legacy,2022.2.4,Win32,59.94844434,22,learning,0,resources/alien4_norm.png,0.68681226,resources/alien3_norm.png,0.333164568,TRUE,TRUE,2,0.485060015,purple,x,0.3172,alien4,TRUE,2,0.341096299,52,1,0.68681226,x,0.6288,0,91,91,91,1,0.605248488,0.727979256,0.333164568,0.68681226,TRUE,,,,,,,,,,,,,,,,,,,,,,,,,,,,,,,,,
GOSH_A7,2023-11-10_09h55.36.137,two_step_task_legacy,2022.2.4,Win32,59.94844434,22,learning,0,resources/alien3_norm.png,0.335050717,resources/alien4_norm.png,0.695375305,TRUE,TRUE,2,0.026100418,purple,x,0.2961,alien4,TRUE,2,0.239627412,53,1,0.695375305,m,0.6791,0,92,92,92,1,0.597920866,0.710049944,0.335050717,0.695375305,FALSE,,,,,,,,,,,,,,,,,,,,,,,,,,,,,,,,,
GOSH_A7,2023-11-10_09h55.36.137,two_step_task_legacy,2022.2.4,Win32,59.94844434,22,learning,0,resources/alien4_norm.png,0.705704451,resources/alien3_norm.png,0.361676132,TRUE,TRUE,2,0.272866904,purple,x,0.3509,alien4,TRUE,2,0.565641988,54,1,0.705704451,x,0.6123,0,93,93,93,1,0.570087701,0.695892733,0.361676132,0.705704451,TRUE,,,,,,,,,,,,,,,,,,,,,,,,,,,,,,,,,
GOSH_A7,2023-11-10_09h55.36.137,two_step_task_legacy,2022.2.4,Win32,59.94844434,22,learning,1,resources/alien2_norm.png,0.708120691,resources/alien1_norm.png,0.529720036,TRUE,TRUE,3,0.941505926,red,x,0.3536,alien1,TRUE,2,0.343947795,55,1,0.529720036,m,1.6298,0,94,94,94,1,0.529720036,0.708120691,0.335318237,0.711789496,TRUE,,,,,,,,,,,,,,,,,,,,,,,,,,,,,,,,,
GOSH_A7,2023-11-10_09h55.36.137,two_step_task_legacy,2022.2.4,Win32,59.94844434,22,learning,1,resources/alien1_norm.png,0.47635657,resources/alien2_norm.png,0.721500672,TRUE,TRUE,3,0.945063156,red,x,0.3144,alien1,TRUE,2,0.185666321,56,1,0.47635657,x,1.0212,0,95,95,95,1,0.47635657,0.721500672,0.398221116,0.682412233,FALSE,,,,,,,,,,,,,,,,,,,,,,,,,,,,,,,,,
GOSH_A7,2023-11-10_09h55.36.137,two_step_task_legacy,2022.2.4,Win32,59.94844434,22,learning,0,resources/alien2_norm.png,0.715414355,resources/alien1_norm.png,0.466179965,TRUE,TRUE,3,0.01911763,red,m,0.3036,alien1,TRUE,2,0.138600472,57,1,0.466179965,m,0.5496,0,96,96,96,1,0.466179965,0.715414355,0.401364405,0.649304922,TRUE,,,,,,,,,,,,,,,,,,,,,,,,,,,,,,,,,
GOSH_A7,2023-11-10_09h55.36.137,two_step_task_legacy,2022.2.4,Win32,59.94844434,22,learning,0,resources/alien1_norm.png,0.467126539,resources/alien2_norm.png,0.723595882,TRUE,TRUE,3,0.624197927,red,m,0.3156,alien1,TRUE,2,0.313807717,58,1,0.467126539,x,0.4675,0,97,97,97,1,0.467126539,0.723595882,0.396988401,0.645948713,FALSE,,,,,,,,,,,,,,,,,,,,,,,,,,,,,,,,,
GOSH_A7,2023-11-10_09h55.36.137,two_step_task_legacy,2022.2.4,Win32,59.94844434,22,learning,0,resources/alien1_norm.png,0.439790307,resources/alien2_norm.png,0.696269276,TRUE,TRUE,3,0.451706616,red,m,0.5167,alien1,TRUE,3,0.564506137,58,0,0.439790307,x,0.4707,0,98,98,98,1,0.439790307,0.696269276,0.433219326,0.668586832,FALSE,,,,,,,,,,,,,,,,,,,,,,,,,,,,,,,,,
GOSH_A7,2023-11-10_09h55.36.137,two_step_task_legacy,2022.2.4,Win32,59.94844434,22,learning,1,resources/alien1_norm.png,0.464800643,resources/alien2_norm.png,0.659724849,TRUE,TRUE,3,0.888494849,red,x,0.4614,alien2,TRUE,2,0.146975915,59,1,0.659724849,m,0.9956,0,99,99,99,1,0.464800643,0.659724849,0.442086132,0.680060197,FALSE,,,,,,,,,,,,,,,,,,,,,,,,,,,,,,,,,
GOSH_A7,2023-11-10_09h55.36.137,two_step_task_legacy,2022.2.4,Win32,59.94844434,22,learning,0,resources/alien3_norm.png,0.432642845,resources/alien4_norm.png,0.688821162,TRUE,TRUE,2,0.455451214,purple,x,0.3872,alien4,TRUE,3,0.711053956,59,0,0.688821162,m,1.4909,0,100,100,100,1,0.453655036,0.648409952,0.432642845,0.688821162,FALSE,,,,,,,,,,,,,,,,,,,,,,,,,,,,,,,,,
GOSH_A7,2023-11-10_09h55.36.137,two_step_task_legacy,2022.2.4,Win32,59.94844434,22,learning,0,resources/alien1_norm.png,0.480154937,resources/alien2_norm.png,0.66099901,TRUE,TRUE,3,0.232886907,red,m,0.2878,alien2,TRUE,3,0.976515347,59,0,0.66099901,m,0.7186,0,101,101,101,1,0.480154937,0.66099901,0.452743872,0.655063209,FALSE,,,,,,,,,,,,,,,,,,,,,,,,,,,,,,,,,
GOSH_A7,2023-11-10_09h55.36.137,two_step_task_legacy,2022.2.4,Win32,59.94844434,22,learning,1,resources/alien4_norm.png,0.675596743,resources/alien3_norm.png,0.456887081,TRUE,TRUE,2,0.913346549,purple,m,0.6335,alien3,TRUE,2,0.323072464,60,1,0.456887081,m,1.1365,0,102,102,102,1,0.435064291,0.686802619,0.456887081,0.675596743,TRUE,,,,,,,,,,,,,,,,,,,,,,,,,,,,,,,,,
GOSH_A7,2023-11-10_09h55.36.137,two_step_task_legacy,2022.2.4,Win32,59.94844434,22,learning,0,resources/alien3_norm.png,0.437649181,resources/alien4_norm.png,0.728894923,TRUE,TRUE,2,0.652108683,purple,x,0.3275,alien3,TRUE,2,0.207173914,61,1,0.437649181,x,0.5206,0,103,103,103,1,0.4274682,0.689975019,0.437649181,0.728894923,FALSE,,,,,,,,,,,,,,,,,,,,,,,,,,,,,,,,,
GOSH_A7,2023-11-10_09h55.36.137,two_step_task_legacy,2022.2.4,Win32,59.94844434,22,learning,0,resources/alien3_norm.png,0.448066099,resources/alien4_norm.png,0.744590341,TRUE,TRUE,2,0.082082454,purple,x,0.3665,alien3,TRUE,2,0.042607447,62,1,0.448066099,x,0.4845,0,104,104,104,1,0.394205489,0.723807258,0.448066099,0.744590341,FALSE,,,,,,,,,,,,,,,,,,,,,,,,,,,,,,,,,
GOSH_A7,2023-11-10_09h55.36.137,two_step_task_legacy,2022.2.4,Win32,59.94844434,22,learning,0,resources/alien3_norm.png,0.485443502,resources/alien4_norm.png,0.723819794,TRUE,TRUE,2,0.264395995,purple,x,0.2969,alien3,TRUE,3,0.561512563,62,0,0.485443502,x,0.446,0,105,105,105,1,0.37371153,0.742093466,0.485443502,0.723819794,FALSE,,,,,,,,,,,,,,,,,,,,,,,,,,,,,,,,,
GOSH_A7,2023-11-10_09h55.36.137,two_step_task_legacy,2022.2.4,Win32,59.94844434,22,learning,1,resources/alien4_norm.png,0.67031434,resources/alien3_norm.png,0.478530119,TRUE,TRUE,2,0.93354489,purple,m,0.5761,alien3,TRUE,2,0.007429406,63,1,0.478530119,m,2.0608,0,106,106,106,1,0.349275118,0.734634343,0.478530119,0.67031434,TRUE,,,,,,,,,,,,,,,,,,,,,,,,,,,,,,,,,
GOSH_A7,2023-11-10_09h55.36.137,two_step_task_legacy,2022.2.4,Win32,59.94844434,22,learning,0,resources/alien4_norm.png,0.709673268,resources/alien3_norm.png,0.495373807,TRUE,TRUE,2,0.482067535,purple,x,0.2498,alien3,TRUE,3,0.525167702,63,0,0.495373807,m,0.4242,0,107,107,107,1,0.35021253,0.718841441,0.495373807,0.709673268,TRUE,,,,,,,,,,,,,,,,,,,,,,,,,,,,,,,,,
GOSH_A7,2023-11-10_09h55.36.137,two_step_task_legacy,2022.2.4,Win32,59.94844434,22,learning,1,resources/alien4_norm.png,0.731898862,resources/alien3_norm.png,0.450735795,TRUE,TRUE,2,0.772286203,purple,m,0.4747,none,FALSE,NA,,63,0,0.495373807,,,0,108,108,108,1,0.337348022,0.676963284,0.450735795,0.731898862,TRUE,,,,,,,,,,,,,,,,,,,,,,,,,,,,,,,,,
GOSH_A7,2023-11-10_09h55.36.137,two_step_task_legacy,2022.2.4,Win32,59.94844434,22,learning,0,resources/alien1_norm.png,0.322911322,resources/alien2_norm.png,0.662157072,TRUE,TRUE,3,0.432958743,red,m,0.6085,alien1,TRUE,3,0.479052403,63,0,0.322911322,x,0.8602,0,109,109,109,1,0.322911322,0.662157072,0.480315234,0.74430369,FALSE,,,,,,,,,,,,,,,,,,,,,,,,,,,,,,,,,
GOSH_A7,2023-11-10_09h55.36.137,two_step_task_legacy,2022.2.4,Win32,59.94844434,22,learning,0,resources/alien4_norm.png,0.7400153,resources/alien3_norm.png,0.477745384,TRUE,TRUE,2,0.519038029,purple,x,0.688,alien4,TRUE,2,0.242360324,64,1,0.7400153,x,0.446,0,110,110,110,1,0.323042006,0.729054729,0.477745384,0.7400153,TRUE,,,,,,,,,,,,,,,,,,,,,,,,,,,,,,,,,
GOSH_A7,2023-11-10_09h55.36.137,two_step_task_legacy,2022.2.4,Win32,59.94844434,22,learning,0,resources/alien3_norm.png,0.502964312,resources/alien4_norm.png,0.740528536,TRUE,TRUE,2,0.613715906,purple,x,0.2707,alien4,TRUE,3,0.928479827,64,0,0.740528536,m,0.9214,0,111,111,111,1,0.346977723,0.717049686,0.502964312,0.740528536,FALSE,,,,,,,,,,,,,,,,,,,,,,,,,,,,,,,,,
GOSH_A7,2023-11-10_09h55.36.137,two_step_task_legacy,2022.2.4,Win32,59.94844434,22,learning,1,resources/alien3_norm.png,0.560076847,resources/alien4_norm.png,0.746181252,TRUE,TRUE,2,0.764367187,purple,m,0.6889,alien3,TRUE,2,0.407843861,65,1,0.560076847,x,1.0513,0,112,112,112,1,0.332641057,0.710505866,0.560076847,0.746181252,FALSE,,,,,,,,,,,,,,,,,,,,,,,,,,,,,,,,,
GOSH_A7,2023-11-10_09h55.36.137,two_step_task_legacy,2022.2.4,Win32,59.94844434,22,learning,0,resources/alien3_norm.png,0.551953466,resources/alien4_norm.png,0.737084193,TRUE,TRUE,2,0.403741693,purple,x,0.3405,alien3,TRUE,3,0.764972544,65,0,0.551953466,x,0.3908,0,113,113,113,1,0.329582244,0.713556046,0.551953466,0.737084193,FALSE,,,,,,,,,,,,,,,,,,,,,,,,,,,,,,,,,
GOSH_A7,2023-11-10_09h55.36.137,two_step_task_legacy,2022.2.4,Win32,59.94844434,22,learning,1,resources/alien4_norm.png,0.722210778,resources/alien3_norm.png,0.54581186,TRUE,TRUE,2,0.916198171,purple,m,0.6061,alien3,TRUE,2,0.478249708,66,1,0.54581186,m,1.4737,0,114,114,114,1,0.300863762,0.698255739,0.54581186,0.722210778,TRUE,,,,,,,,,,,,,,,,,,,,,,,,,,,,,,,,,
GOSH_A7,2023-11-10_09h55.36.137,two_step_task_legacy,2022.2.4,Win32,59.94844434,22,learning,1,resources/alien1_norm.png,0.335585272,resources/alien2_norm.png,0.683609207,TRUE,TRUE,3,0.702604429,red,x,0.2888,alien1,TRUE,3,0.850874789,66,0,0.335585272,x,1.7404,0,115,115,115,1,0.335585272,0.683609207,0.527422928,0.744852234,FALSE,,,,,,,,,,,,,,,,,,,,,,,,,,,,,,,,,
GOSH_A7,2023-11-10_09h55.36.137,two_step_task_legacy,2022.2.4,Win32,59.94844434,22,learning,1,resources/alien1_norm.png,0.358671417,resources/alien2_norm.png,0.690248802,TRUE,TRUE,3,0.852501236,red,x,0.2668,alien2,TRUE,2,0.15616967,67,1,0.690248802,m,1.1047,0,116,116,116,1,0.358671417,0.690248802,0.529277885,0.710357088,FALSE,,,,,,,,,,,,,,,,,,,,,,,,,,,,,,,,,
GOSH_A7,2023-11-10_09h55.36.137,two_step_task_legacy,2022.2.4,Win32,59.94844434,22,learning,1,resources/alien3_norm.png,0.547665382,resources/alien4_norm.png,0.724019431,TRUE,TRUE,2,0.896412503,purple,m,0.5721,alien3,TRUE,2,0.391718227,68,1,0.547665382,x,1.0505,0,117,117,117,1,0.395365799,0.718538292,0.547665382,0.724019431,FALSE,,,,,,,,,,,,,,,,,,,,,,,,,,,,,,,,,
GOSH_A7,2023-11-10_09h55.36.137,two_step_task_legacy,2022.2.4,Win32,59.94844434,22,learning,0,resources/alien3_norm.png,0.542102089,resources/alien4_norm.png,0.74235091,TRUE,TRUE,2,0.505380273,purple,x,0.287,alien3,TRUE,3,0.719530507,68,0,0.542102089,x,0.3686,0,118,118,118,1,0.384016558,0.721594268,0.542102089,0.74235091,FALSE,,,,,,,,,,,,,,,,,,,,,,,,,,,,,,,,,
GOSH_A7,2023-11-10_09h55.36.137,two_step_task_legacy,2022.2.4,Win32,59.94844434,22,learning,1,resources/alien4_norm.png,0.742572012,resources/alien3_norm.png,0.527099802,TRUE,TRUE,2,0.727269472,purple,m,0.2509,alien4,TRUE,3,0.748352139,68,0,0.742572012,x,1.123,0,119,119,119,1,0.379194304,0.706850908,0.527099802,0.742572012,TRUE,,,,,,,,,,,,,,,,,,,,,,,,,,,,,,,,,
GOSH_A7,2023-11-10_09h55.36.137,two_step_task_legacy,2022.2.4,Win32,59.94844434,22,learning,1,resources/alien4_norm.png,0.747849489,resources/alien3_norm.png,0.497453415,TRUE,TRUE,2,0.872374756,purple,m,0.2539,alien3,TRUE,2,0.151867661,69,1,0.497453415,m,1.0971,0,120,120,120,1,0.311589413,0.742746316,0.497453415,0.747849489,TRUE,,,,,,,,,,,,,,,,,,,,,,,,,,,,,,,,,
GOSH_A7,2023-11-10_09h55.36.137,two_step_task_legacy,2022.2.4,Win32,59.94844434,22,learning,0,resources/alien1_norm.png,0.288613638,resources/alien2_norm.png,0.734331013,TRUE,TRUE,3,0.386730862,red,m,0.3898,alien1,TRUE,2,0.015955836,70,1,0.288613638,x,0.8026,0,121,121,121,1,0.288613638,0.734331013,0.493636211,0.732948846,FALSE,,,,,,,,,,,,,,,,,,,,,,,,,,,,,,,,,
GOSH_A7,2023-11-10_09h55.36.137,two_step_task_legacy,2022.2.4,Win32,59.94844434,22,learning,0,resources/alien1_norm.png,0.327163232,resources/alien2_norm.png,0.735030185,TRUE,TRUE,3,0.697466831,red,m,0.3445,alien1,TRUE,2,0.283468246,71,1,0.327163232,x,0.4068,0,122,122,122,1,0.327163232,0.735030185,0.458718952,0.712748711,FALSE,,,,,,,,,,,,,,,,,,,,,,,,,,,,,,,,,
GOSH_A7,2023-11-10_09h55.36.137,two_step_task_legacy,2022.2.4,Win32,59.94844434,22,learning,1,resources/alien3_norm.png,0.414123906,resources/alien4_norm.png,0.707920788,TRUE,TRUE,2,0.818218728,purple,m,0.2845,alien3,TRUE,2,0.31262741,72,1,0.414123906,x,0.977,0,123,123,123,1,0.325553926,0.735188606,0.414123906,0.707920788,FALSE,,,,,,,,,,,,,,,,,,,,,,,,,,,,,,,,,
GOSH_A7,2023-11-10_09h55.36.137,two_step_task_legacy,2022.2.4,Win32,59.94844434,22,learning,0,resources/alien1_norm.png,0.332284924,resources/alien2_norm.png,0.728011457,TRUE,TRUE,3,0.573368439,red,m,0.2684,alien1,TRUE,2,0.017869922,73,1,0.332284924,x,0.4365,0,124,124,124,1,0.332284924,0.728011457,0.358787311,0.719523144,FALSE,,,,,,,,,,,,,,,,,,,,,,,,,,,,,,,,,
GOSH_A7,2023-11-10_09h55.36.137,two_step_task_legacy,2022.2.4,Win32,59.94844434,22,learning,1,resources/alien4_norm.png,0.736399527,resources/alien3_norm.png,0.400002364,TRUE,TRUE,2,0.856035626,purple,m,0.2773,alien3,TRUE,2,0.048215488,74,1,0.400002364,m,0.9413,0,125,125,125,1,0.326093405,0.695840729,0.400002364,0.736399527,TRUE,,,,,,,,,,,,,,,,,,,,,,,,,,,,,,,,,
GOSH_A7,2023-11-10_09h55.36.137,two_step_task_legacy,2022.2.4,Win32,59.94844434,22,learning,0,resources/alien1_norm.png,0.323930204,resources/alien2_norm.png,0.660568372,TRUE,TRUE,3,0.259131739,red,m,0.2673,alien1,TRUE,2,0.069104001,75,1,0.323930204,x,0.5358,0,126,126,126,1,0.323930204,0.660568372,0.427141787,0.734764761,FALSE,,,,,,,,,,,,,,,,,,,,,,,,,,,,,,,,,
GOSH_A7,2023-11-10_09h55.36.137,two_step_task_legacy,2022.2.4,Win32,59.94844434,22,learning,0,resources/alien2_norm.png,0.647692248,resources/alien1_norm.png,0.340229983,TRUE,TRUE,3,0.684424876,red,m,0.2489,alien1,TRUE,2,0.270271418,76,1,0.340229983,m,0.6436,0,127,127,127,1,0.340229983,0.647692248,0.427069701,0.72143708,TRUE,,,,,,,,,,,,,,,,,,,,,,,,,,,,,,,,,
GOSH_A7,2023-11-10_09h55.36.137,two_step_task_legacy,2022.2.4,Win32,59.94844434,22,learning,0,resources/alien1_norm.png,0.338813549,resources/alien2_norm.png,0.630816083,TRUE,TRUE,3,0.186346213,red,m,0.2914,alien1,TRUE,3,0.974485689,76,0,0.338813549,x,0.3947,0,128,128,128,1,0.338813549,0.630816083,0.40499619,0.744385778,FALSE,,,,,,,,,,,,,,,,,,,,,,,,,,,,,,,,,
GOSH_A7,2023-11-10_09h55.36.137,two_step_task_legacy,2022.2.4,Win32,59.94844434,22,learning,0,resources/alien3_norm.png,0.444389232,resources/alien4_norm.png,0.724357321,TRUE,TRUE,2,0.161542058,purple,x,0.298,alien3,TRUE,2,0.359897798,77,1,0.444389232,x,0.8715,0,129,129,129,1,0.336434737,0.661989018,0.444389232,0.724357321,FALSE,,,,,,,,,,,,,,,,,,,,,,,,,,,,,,,,,
GOSH_A7,2023-11-10_09h55.36.137,two_step_task_legacy,2022.2.4,Win32,59.94844434,22,learning,0,resources/alien3_norm.png,0.428715926,resources/alien4_norm.png,0.730204744,TRUE,TRUE,2,0.585637197,purple,x,0.289,alien3,TRUE,3,0.49909767,77,0,0.428715926,x,0.3851,0,130,130,130,1,0.290559274,0.672971781,0.428715926,0.730204744,FALSE,,,,,,,,,,,,,,,,,,,,,,,,,,,,,,,,,
GOSH_A7,2023-11-10_09h55.36.137,two_step_task_legacy,2022.2.4,Win32,59.94844434,22,learning,0,resources/alien3_norm.png,0.426712563,resources/alien4_norm.png,0.736924708,TRUE,TRUE,2,0.267652116,purple,x,0.4696,alien4,TRUE,2,0.644472673,78,1,0.736924708,m,0.4875,0,131,131,131,1,0.316122369,0.620277314,0.426712563,0.736924708,FALSE,,,,,,,,,,,,,,,,,,,,,,,,,,,,,,,,,
GOSH_A7,2023-11-10_09h55.36.137,two_step_task_legacy,2022.2.4,Win32,59.94844434,22,learning,0,resources/alien4_norm.png,0.745455893,resources/alien3_norm.png,0.428806971,TRUE,TRUE,2,0.506748722,purple,x,0.2952,alien4,TRUE,3,0.898710103,78,0,0.745455893,x,0.4667,0,132,132,132,1,0.351537647,0.634556363,0.428806971,0.745455893,TRUE,,,,,,,,,,,,,,,,,,,,,,,,,,,,,,,,,
GOSH_A7,2023-11-10_09h55.36.137,two_step_task_legacy,2022.2.4,Win32,59.94844434,22,learning,1,resources/alien4_norm.png,0.746235282,resources/alien3_norm.png,0.393697106,TRUE,TRUE,2,0.883511605,purple,m,0.4334,alien3,TRUE,3,0.536423153,78,0,0.393697106,m,1.4737,0,133,133,133,1,0.36337083,0.630455363,0.393697106,0.746235282,TRUE,,,,,,,,,,,,,,,,,,,,,,,,,,,,,,,,,
GOSH_A7,2023-11-10_09h55.36.137,two_step_task_legacy,2022.2.4,Win32,59.94844434,22,learning,0,resources/alien1_norm.png,0.391533394,resources/alien2_norm.png,0.629464294,TRUE,TRUE,3,0.295286075,red,m,0.2612,alien2,TRUE,2,0.483768311,79,1,0.629464294,m,0.6514,0,134,134,134,1,0.391533394,0.629464294,0.40193756,0.744542488,FALSE,,,,,,,,,,,,,,,,,,,,,,,,,,,,,,,,,
GOSH_A7,2023-11-10_09h55.36.137,two_step_task_legacy,2022.2.4,Win32,59.94844434,22,learning,0,resources/alien1_norm.png,0.369719776,resources/alien2_norm.png,0.638245617,TRUE,TRUE,3,0.454464348,red,m,0.2607,alien2,TRUE,2,0.025416617,80,1,0.638245617,m,0.4841,0,135,135,135,1,0.369719776,0.638245617,0.393998803,0.715176093,FALSE,,,,,,,,,,,,,,,,,,,,,,,,,,,,,,,,,
GOSH_A7,2023-11-10_09h55.36.137,two_step_task_legacy,2022.2.4,Win32,59.94844434,22,learning,0,resources/alien2_norm.png,0.649511756,resources/alien1_norm.png,0.366198559,TRUE,TRUE,3,0.025813395,red,m,0.3542,alien2,TRUE,2,0.393955039,81,1,0.649511756,x,0.5334,0,136,136,136,1,0.366198559,0.649511756,0.413754202,0.707095008,TRUE,,,,,,,,,,,,,,,,,,,,,,,,,,,,,,,,,
GOSH_A7,2023-11-10_09h55.36.137,two_step_task_legacy,2022.2.4,Win32,59.94844434,22,learning,0,resources/alien1_norm.png,0.382888211,resources/alien2_norm.png,0.652072629,TRUE,TRUE,3,0.684943891,red,m,0.3268,alien2,TRUE,2,0.370078872,82,1,0.652072629,m,0.5695,0,137,137,137,1,0.382888211,0.652072629,0.397718097,0.712484856,FALSE,,,,,,,,,,,,,,,,,,,,,,,,,,,,,,,,,
GOSH_A7,2023-11-10_09h55.36.137,two_step_task_legacy,2022.2.4,Win32,59.94844434,22,learning,0,resources/alien2_norm.png,0.668249043,resources/alien1_norm.png,0.343581066,TRUE,TRUE,3,0.166532142,red,m,0.6145,alien2,TRUE,2,0.597812405,83,1,0.668249043,x,0.3902,0,138,138,138,1,0.343581066,0.668249043,0.403132479,0.693717942,TRUE,,,,,,,,,,,,,,,,,,,,,,,,,,,,,,,,,
GOSH_A7,2023-11-10_09h55.36.137,two_step_task_legacy,2022.2.4,Win32,59.94844434,22,learning,0,resources/alien1_norm.png,0.363838317,resources/alien2_norm.png,0.672524194,TRUE,TRUE,3,0.461068722,red,m,0.4425,alien2,TRUE,2,0.539778876,84,1,0.672524194,m,0.4123,0,139,139,139,1,0.363838317,0.672524194,0.435461559,0.688514127,FALSE,,,,,,,,,,,,,,,,,,,,,,,,,,,,,,,,,
GOSH_A7,2023-11-10_09h55.36.137,two_step_task_legacy,2022.2.4,Win32,59.94844434,22,learning,1,resources/alien4_norm.png,0.693632034,resources/alien3_norm.png,0.439845091,TRUE,TRUE,2,0.949196942,purple,m,0.4417,alien3,TRUE,2,0.261128333,85,1,0.439845091,m,2.1179,0,140,140,140,1,0.379344852,0.710972025,0.439845091,0.693632034,TRUE,,,,,,,,,,,,,,,,,,,,,,,,,,,,,,,,,
GOSH_A7,2023-11-10_09h55.36.137,two_step_task_legacy,2022.2.4,Win32,59.94844434,22,learning,1,resources/alien4_norm.png,0.69214813,resources/alien3_norm.png,0.431317014,TRUE,TRUE,2,0.960065993,purple,m,0.333,alien3,TRUE,3,0.599362157,85,0,0.431317014,m,0.8212,0,141,141,141,1,0.373374152,0.729873496,0.431317014,0.69214813,TRUE,,,,,,,,,,,,,,,,,,,,,,,,,,,,,,,,,
GOSH_A7,2023-11-10_09h55.36.137,two_step_task_legacy,2022.2.4,Win32,59.94844434,22,learning,1,resources/alien3_norm.png,0.452030427,resources/alien4_norm.png,0.674123188,TRUE,TRUE,2,0.739888527,purple,m,0.27,alien4,TRUE,3,0.951364737,85,0,0.674123188,m,1.3227,0,142,142,142,1,0.390669051,0.716383606,0.452030427,0.674123188,FALSE,,,,,,,,,,,,,,,,,,,,,,,,,,,,,,,,,
GOSH_A7,2023-11-10_09h55.36.137,two_step_task_legacy,2022.2.4,Win32,59.94844434,22,learning,0,resources/alien1_norm.png,0.339477736,resources/alien2_norm.png,0.744969912,TRUE,TRUE,3,0.233340318,red,m,0.3115,alien2,TRUE,3,0.887808582,85,0,0.744969912,m,0.5864,0,143,143,143,1,0.339477736,0.744969912,0.442360919,0.639333921,FALSE,,,,,,,,,,,,,,,,,,,,,,,,,,,,,,,,,
GOSH_A7,2023-11-10_09h55.36.137,two_step_task_legacy,2022.2.4,Win32,59.94844434,22,learning,0,resources/alien2_norm.png,0.710844956,resources/alien1_norm.png,0.317803938,TRUE,TRUE,3,0.083211518,red,m,0.7273,alien1,TRUE,3,0.517320925,85,0,0.317803938,m,0.4755,0,144,144,144,1,0.317803938,0.710844956,0.42051828,0.612593584,TRUE,,,,,,,,,,,,,,,,,,,,,,,,,,,,,,,,,
GOSH_A7,2023-11-10_09h55.36.137,two_step_task_legacy,2022.2.4,Win32,59.94844434,22,learning,0,resources/alien4_norm.png,0.635215037,resources/alien3_norm.png,0.446044137,TRUE,TRUE,2,0.413976785,purple,x,0.3395,alien3,TRUE,3,0.658038172,85,0,0.446044137,m,0.5169,0,145,145,145,1,0.311104109,0.746481624,0.446044137,0.635215037,TRUE,,,,,,,,,,,,,,,,,,,,,,,,,,,,,,,,,
GOSH_A7,2023-11-10_09h55.36.137,two_step_task_legacy,2022.2.4,Win32,59.94844434,22,learning,0,resources/alien4_norm.png,0.626838599,resources/alien3_norm.png,0.457400821,TRUE,TRUE,2,0.266752544,purple,x,0.5667,alien4,TRUE,2,0.452448562,86,1,0.626838599,x,0.5957,0,146,146,146,1,0.322435636,0.748817246,0.457400821,0.626838599,TRUE,,,,,,,,,,,,,,,,,,,,,,,,,,,,,,,,,
GOSH_A7,2023-11-10_09h55.36.137,two_step_task_legacy,2022.2.4,Win32,59.94844434,22,learning,1,resources/alien2_norm.png,0.708845948,resources/alien1_norm.png,0.311003061,TRUE,TRUE,3,0.817398417,red,x,0.268,alien1,TRUE,3,0.615133554,86,0,0.311003061,m,1.8668,0,147,147,147,1,0.311003061,0.708845948,0.444423405,0.604796627,TRUE,,,,,,,,,,,,,,,,,,,,,,,,,,,,,,,,,
GOSH_A7,2023-11-10_09h55.36.137,two_step_task_legacy,2022.2.4,Win32,59.94844434,22,learning,0,resources/alien3_norm.png,0.466381219,resources/alien4_norm.png,0.575008043,TRUE,TRUE,2,0.002437746,purple,x,0.2646,alien4,TRUE,2,0.467018833,87,1,0.575008043,m,1.2062,0,148,148,148,1,0.323921279,0.709213445,0.466381219,0.575008043,FALSE,,,,,,,,,,,,,,,,,,,,,,,,,,,,,,,,,
GOSH_A7,2023-11-10_09h55.36.137,two_step_task_legacy,2022.2.4,Win32,59.94844434,22,learning,1,resources/alien1_norm.png,0.320184667,resources/alien2_norm.png,0.703134316,TRUE,TRUE,3,0.836833194,red,x,0.3061,alien2,TRUE,2,0.638450743,88,1,0.703134316,m,1.9214,0,149,149,149,1,0.320184667,0.703134316,0.42955844,0.581290383,FALSE,,,,,,,,,,,,,,,,,,,,,,,,,,,,,,,,,
GOSH_A7,2023-11-10_09h55.36.137,two_step_task_legacy,2022.2.4,Win32,59.94844434,22,learning,0,resources/alien4_norm.png,0.6,resources/alien3_norm.png,0.4,TRUE,TRUE,2,0.078024078,purple,x,0.2554,alien4,TRUE,2,0.423594816,89,1,0.6,x,0.7836,0,150,150,150,1,0.3,0.7,0.4,0.6,TRUE,,,,,,,,,,,,,,,,,,,,,,,,,,,,,,,,,
GOSH_A7,2023-11-10_09h55.36.137,two_step_task_legacy,2022.2.4,Win32,59.94844434,22,learning,0,resources/alien4_norm.png,0.6,resources/alien3_norm.png,0.4,TRUE,TRUE,2,0.019785938,purple,x,0.2664,alien4,TRUE,3,0.612465734,89,0,0.6,x,0.7646,0,151,151,151,1,0.3,0.7,0.4,0.6,TRUE,,,,,,,,,,,,,,,,,,,,,,,,,,,,,,,,,
GOSH_A7,2023-11-10_09h55.36.137,two_step_task_legacy,2022.2.4,Win32,59.94844434,22,learning,0,resources/alien2_norm.png,0.7,resources/alien1_norm.png,0.3,TRUE,TRUE,3,0.018241002,red,m,0.2813,alien2,TRUE,2,0.560388218,90,1,0.7,x,0.4501,0,152,152,152,1,0.3,0.7,0.4,0.6,TRUE,,,,,,,,,,,,,,,,,,,,,,,,,,,,,,,,,
GOSH_A7,2023-11-10_09h55.36.137,two_step_task_legacy,2022.2.4,Win32,59.94844434,22,learning,0,resources/alien2_norm.png,0.7,resources/alien1_norm.png,0.3,TRUE,TRUE,3,0.364849191,red,m,0.3008,alien2,TRUE,3,0.908813981,90,0,0.7,x,0.4181,0,153,153,153,1,0.3,0.7,0.4,0.6,TRUE,,,,,,,,,,,,,,,,,,,,,,,,,,,,,,,,,
GOSH_A7,2023-11-10_09h55.36.137,two_step_task_legacy,2022.2.4,Win32,59.94844434,22,learning,1,resources/alien3_norm.png,0.4,resources/alien4_norm.png,0.6,TRUE,TRUE,2,0.821796823,purple,m,0.845,alien3,TRUE,3,0.442713653,90,0,0.4,x,0.9368,0,154,154,154,1,0.3,0.7,0.4,0.6,FALSE,,,,,,,,,,,,,,,,,,,,,,,,,,,,,,,,,
GOSH_A7,2023-11-10_09h55.36.137,two_step_task_legacy,2022.2.4,Win32,59.94844434,22,learning,0,resources/alien1_norm.png,0.3,resources/alien2_norm.png,0.7,TRUE,TRUE,3,0.199338146,red,m,0.2531,alien1,TRUE,3,0.68179833,90,0,0.3,x,0.4622,0,155,155,155,1,0.3,0.7,0.4,0.6,FALSE,,,,,,,,,,,,,,,,,,,,,,,,,,,,,,,,,
GOSH_A7,2023-11-10_09h55.36.137,two_step_task_legacy,2022.2.4,Win32,59.94844434,22,learning,0,resources/alien2_norm.png,0.7,resources/alien1_norm.png,0.3,TRUE,TRUE,3,0.511003747,red,m,0.3864,alien2,TRUE,2,0.421594415,91,1,0.7,x,1.0636,0,156,156,156,1,0.3,0.7,0.4,0.6,TRUE,,,,,,,,,,,,,,,,,,,,,,,,,,,,,,,,,
GOSH_A7,2023-11-10_09h55.36.137,two_step_task_legacy,2022.2.4,Win32,59.94844434,22,learning,0,resources/alien1_norm.png,0.3,resources/alien2_norm.png,0.7,TRUE,TRUE,3,0.21047817,red,m,0.2796,alien2,TRUE,3,0.871180952,91,0,0.7,m,0.4457,0,157,157,157,1,0.3,0.7,0.4,0.6,FALSE,,,,,,,,,,,,,,,,,,,,,,,,,,,,,,,,,
GOSH_A7,2023-11-10_09h55.36.137,two_step_task_legacy,2022.2.4,Win32,59.94844434,22,learning,1,resources/alien4_norm.png,0.6,resources/alien3_norm.png,0.4,TRUE,TRUE,2,0.94987334,purple,m,0.4725,alien3,TRUE,3,0.905082559,91,0,0.4,m,0.8827,0,158,158,158,1,0.3,0.7,0.4,0.6,TRUE,,,,,,,,,,,,,,,,,,,,,,,,,,,,,,,,,
GOSH_A7,2023-11-10_09h55.36.137,two_step_task_legacy,2022.2.4,Win32,59.94844434,22,learning,1,resources/alien2_norm.png,0.7,resources/alien1_norm.png,0.3,TRUE,TRUE,3,0.707247809,red,x,0.7922,alien2,TRUE,2,0.398575807,92,1,0.7,x,1.8729,0,159,159,159,1,0.3,0.7,0.4,0.6,TRUE,,,,,,,,,,,,,,,,,,,,,,,,,,,,,,,,,
GOSH_A7,2023-11-10_09h55.36.137,two_step_task_legacy,2022.2.4,Win32,59.94844434,22,learning,0,resources/alien1_norm.png,0.3,resources/alien2_norm.png,0.7,TRUE,TRUE,3,0.544621189,red,m,0.4544,alien2,TRUE,2,0.353285132,93,1,0.7,m,0.5518,0,160,160,160,1,0.3,0.7,0.4,0.6,FALSE,,,,,,,,,,,,,,,,,,,,,,,,,,,,,,,,,
GOSH_A7,2023-11-10_09h55.36.137,two_step_task_legacy,2022.2.4,Win32,59.94844434,22,learning,0,resources/alien1_norm.png,0.3,resources/alien2_norm.png,0.7,TRUE,TRUE,3,0.653629596,red,m,0.3173,alien2,TRUE,2,0.667561214,94,1,0.7,m,0.4729,0,161,161,161,1,0.3,0.7,0.4,0.6,FALSE,,,,,,,,,,,,,,,,,,,,,,,,,,,,,,,,,
GOSH_A7,2023-11-10_09h55.36.137,two_step_task_legacy,2022.2.4,Win32,59.94844434,22,learning,0,resources/alien2_norm.png,0.7,resources/alien1_norm.png,0.3,TRUE,TRUE,3,0.209954884,red,m,0.3276,alien2,TRUE,2,0.064780541,95,1,0.7,x,0.6732,0,162,162,162,1,0.3,0.7,0.4,0.6,TRUE,,,,,,,,,,,,,,,,,,,,,,,,,,,,,,,,,
GOSH_A7,2023-11-10_09h55.36.137,two_step_task_legacy,2022.2.4,Win32,59.94844434,22,learning,0,resources/alien1_norm.png,0.3,resources/alien2_norm.png,0.7,TRUE,TRUE,3,0.000428456,red,m,0.3164,alien2,TRUE,2,0.120920903,96,1,0.7,m,0.4947,0,163,163,163,1,0.3,0.7,0.4,0.6,FALSE,,,,,,,,,,,,,,,,,,,,,,,,,,,,,,,,,
GOSH_A7,2023-11-10_09h55.36.137,two_step_task_legacy,2022.2.4,Win32,59.94844434,22,learning,1,resources/alien4_norm.png,0.6,resources/alien3_norm.png,0.4,TRUE,TRUE,2,0.746155218,purple,m,0.4103,alien3,TRUE,3,0.717993508,96,0,0.4,m,1.5562,0,164,164,164,1,0.3,0.7,0.4,0.6,TRUE,,,,,,,,,,,,,,,,,,,,,,,,,,,,,,,,,
GOSH_A7,2023-11-10_09h55.36.137,two_step_task_legacy,2022.2.4,Win32,59.94844434,22,learning,0,resources/alien2_norm.png,0.7,resources/alien1_norm.png,0.3,TRUE,TRUE,3,0.330323024,red,m,0.3865,alien2,TRUE,2,0.494440987,97,1,0.7,x,0.6548,0,165,165,165,1,0.3,0.7,0.4,0.6,TRUE,,,,,,,,,,,,,,,,,,,,,,,,,,,,,,,,,
GOSH_A7,2023-11-10_09h55.36.137,two_step_task_legacy,2022.2.4,Win32,59.94844434,22,learning,1,resources/alien3_norm.png,0.4,resources/alien4_norm.png,0.6,TRUE,TRUE,2,0.969798663,purple,m,0.2759,alien4,TRUE,2,0.227748959,98,1,0.6,m,0.9173,0,166,166,166,1,0.3,0.7,0.4,0.6,FALSE,,,,,,,,,,,,,,,,,,,,,,,,,,,,,,,,,
GOSH_A7,2023-11-10_09h55.36.137,two_step_task_legacy,2022.2.4,Win32,59.94844434,22,learning,0,resources/alien1_norm.png,0.3,resources/alien2_norm.png,0.7,TRUE,TRUE,3,0.062489486,red,m,0.3893,alien2,TRUE,2,0.634200167,99,1,0.7,m,0.5438,0,167,167,167,1,0.3,0.7,0.4,0.6,FALSE,,,,,,,,,,,,,,,,,,,,,,,,,,,,,,,,,
GOSH_A7,2023-11-10_09h55.36.137,two_step_task_legacy,2022.2.4,Win32,59.94844434,22,learning,1,resources/alien4_norm.png,0.6,resources/alien3_norm.png,0.4,TRUE,TRUE,2,0.993443886,purple,m,0.284,alien4,TRUE,2,0.427619242,100,1,0.6,x,0.8002,0,168,168,168,1,0.3,0.7,0.4,0.6,TRUE,,,,,,,,,,,,,,,,,,,,,,,,,,,,,,,,,
GOSH_A7,2023-11-10_09h55.36.137,two_step_task_legacy,2022.2.4,Win32,59.94844434,22,learning,0,resources/alien1_norm.png,0.3,resources/alien2_norm.png,0.7,TRUE,TRUE,3,0.501204738,red,m,0.6827,alien2,TRUE,2,0.401057547,101,1,0.7,m,0.5723,0,169,169,169,1,0.3,0.7,0.4,0.6,FALSE,,,,,,,,,,,,,,,,,,,,,,,,,,,,,,,,,
GOSH_A7,2023-11-10_09h55.36.137,two_step_task_legacy,2022.2.4,Win32,59.94844434,22,learning,0,resources/alien2_norm.png,0.7,resources/alien1_norm.png,0.3,TRUE,TRUE,3,0.500286985,red,m,0.4387,alien2,TRUE,2,0.173161005,102,1,0.7,x,0.4402,0,170,170,170,1,0.3,0.7,0.4,0.6,TRUE,,,,,,,,,,,,,,,,,,,,,,,,,,,,,,,,,
GOSH_A7,2023-11-10_09h55.36.137,two_step_task_legacy,2022.2.4,Win32,59.94844434,22,learning,1,resources/alien1_norm.png,0.3,resources/alien2_norm.png,0.7,TRUE,TRUE,3,0.71321441,red,x,0.5293,alien2,TRUE,3,0.984943795,102,0,0.7,m,0.9045,0,171,171,171,1,0.3,0.7,0.4,0.6,FALSE,,,,,,,,,,,,,,,,,,,,,,,,,,,,,,,,,
GOSH_A7,2023-11-10_09h55.36.137,two_step_task_legacy,2022.2.4,Win32,59.94844434,22,learning,0,resources/alien4_norm.png,0.6,resources/alien3_norm.png,0.4,TRUE,TRUE,2,0.695538041,purple,x,0.3172,alien4,TRUE,3,0.657182205,102,0,0.6,x,0.4108,0,172,172,172,1,0.3,0.7,0.4,0.6,TRUE,,,,,,,,,,,,,,,,,,,,,,,,,,,,,,,,,
GOSH_A7,2023-11-10_09h55.36.137,two_step_task_legacy,2022.2.4,Win32,59.94844434,22,learning,1,resources/alien3_norm.png,0.4,resources/alien4_norm.png,0.6,TRUE,TRUE,2,0.892174839,purple,m,0.544,alien3,TRUE,2,0.396685024,103,1,0.4,x,0.9229,0,173,173,173,1,0.3,0.7,0.4,0.6,FALSE,,,,,,,,,,,,,,,,,,,,,,,,,,,,,,,,,
GOSH_A7,2023-11-10_09h55.36.137,two_step_task_legacy,2022.2.4,Win32,59.94844434,22,learning,0,resources/alien4_norm.png,0.6,resources/alien3_norm.png,0.4,TRUE,TRUE,2,0.265823933,purple,x,0.2773,alien3,TRUE,2,0.3041976,104,1,0.4,m,0.5673,0,174,174,174,1,0.3,0.7,0.4,0.6,TRUE,,,,,,,,,,,,,,,,,,,,,,,,,,,,,,,,,
GOSH_A7,2023-11-10_09h55.36.137,two_step_task_legacy,2022.2.4,Win32,59.94844434,22,learning,0,resources/alien3_norm.png,0.4,resources/alien4_norm.png,0.6,TRUE,TRUE,2,0.195401816,purple,x,0.2738,alien3,TRUE,3,0.665611367,104,0,0.4,x,0.456,0,175,175,175,1,0.3,0.7,0.4,0.6,FALSE,,,,,,,,,,,,,,,,,,,,,,,,,,,,,,,,,
GOSH_A7,2023-11-10_09h55.36.137,two_step_task_legacy,2022.2.4,Win32,59.94844434,22,learning,0,resources/alien4_norm.png,0.6,resources/alien3_norm.png,0.4,TRUE,TRUE,2,0.203394255,purple,x,0.257,alien3,TRUE,3,0.506692663,104,0,0.4,m,0.6678,0,176,176,176,1,0.3,0.7,0.4,0.6,TRUE,,,,,,,,,,,,,,,,,,,,,,,,,,,,,,,,,
GOSH_A7,2023-11-10_09h55.36.137,two_step_task_legacy,2022.2.4,Win32,59.94844434,22,learning,0,resources/alien1_norm.png,0.3,resources/alien2_norm.png,0.7,TRUE,TRUE,3,0.600018522,red,m,0.2664,alien1,TRUE,3,0.853543015,104,0,0.3,x,0.5738,0,177,177,177,1,0.3,0.7,0.4,0.6,FALSE,,,,,,,,,,,,,,,,,,,,,,,,,,,,,,,,,
GOSH_A7,2023-11-10_09h55.36.137,two_step_task_legacy,2022.2.4,Win32,59.94844434,22,learning,0,resources/alien2_norm.png,0.7,resources/alien1_norm.png,0.3,TRUE,TRUE,3,0.019399796,red,m,0.8011,alien2,TRUE,2,0.409583415,105,1,0.7,x,0.4742,0,178,178,178,1,0.3,0.7,0.4,0.6,TRUE,,,,,,,,,,,,,,,,,,,,,,,,,,,,,,,,,
GOSH_A7,2023-11-10_09h55.36.137,two_step_task_legacy,2022.2.4,Win32,59.94844434,22,learning,1,resources/alien3_norm.png,0.4,resources/alien4_norm.png,0.6,TRUE,TRUE,2,0.825138062,purple,m,0.2528,alien4,TRUE,3,0.841503671,105,0,0.6,m,0.9847,0,179,179,179,1,0.3,0.7,0.4,0.6,FALSE,,,,,,,,,,,,,,,,,,,,,,,,,,,,,,,,,
GOSH_A7,2023-11-10_09h55.36.137,two_step_task_legacy,2022.2.4,Win32,59.94844434,22,learning,1,resources/alien3_norm.png,0.4,resources/alien4_norm.png,0.6,TRUE,TRUE,2,0.783458924,purple,m,0.2401,alien3,TRUE,2,0.379262387,106,1,0.4,x,0.5006,0,180,180,180,1,0.3,0.7,0.4,0.6,FALSE,,,,,,,,,,,,,,,,,,,,,,,,,,,,,,,,,
GOSH_A7,2023-11-10_09h55.36.137,two_step_task_legacy,2022.2.4,Win32,59.94844434,22,learning,1,resources/alien3_norm.png,0.4,resources/alien4_norm.png,0.6,TRUE,TRUE,2,0.808145571,purple,m,0.2903,alien3,TRUE,3,0.564628154,106,0,0.4,x,0.8223,0,181,181,181,1,0.3,0.7,0.4,0.6,FALSE,,,,,,,,,,,,,,,,,,,,,,,,,,,,,,,,,
GOSH_A7,2023-11-10_09h55.36.137,two_step_task_legacy,2022.2.4,Win32,59.94844434,22,learning,0,resources/alien2_norm.png,0.7,resources/alien1_norm.png,0.3,TRUE,TRUE,3,0.43320515,red,m,0.278,alien2,TRUE,2,0.562999061,107,1,0.7,x,2.7157,0,182,182,182,1,0.3,0.7,0.4,0.6,TRUE,,,,,,,,,,,,,,,,,,,,,,,,,,,,,,,,,
GOSH_A7,2023-11-10_09h55.36.137,two_step_task_legacy,2022.2.4,Win32,59.94844434,22,learning,0,resources/alien1_norm.png,0.3,resources/alien2_norm.png,0.7,TRUE,TRUE,3,0.047022813,red,m,0.256,alien2,TRUE,3,0.844096931,107,0,0.7,m,0.45,0,183,183,183,1,0.3,0.7,0.4,0.6,FALSE,,,,,,,,,,,,,,,,,,,,,,,,,,,,,,,,,
GOSH_A7,2023-11-10_09h55.36.137,two_step_task_legacy,2022.2.4,Win32,59.94844434,22,learning,1,resources/alien2_norm.png,0.7,resources/alien1_norm.png,0.3,TRUE,TRUE,3,0.880462552,red,x,0.2702,alien1,TRUE,3,0.803945059,107,0,0.3,m,0.8466,0,184,184,184,1,0.3,0.7,0.4,0.6,TRUE,,,,,,,,,,,,,,,,,,,,,,,,,,,,,,,,,
GOSH_A7,2023-11-10_09h55.36.137,two_step_task_legacy,2022.2.4,Win32,59.94844434,22,learning,0,resources/alien3_norm.png,0.4,resources/alien4_norm.png,0.6,TRUE,TRUE,2,0.30710809,purple,x,0.2779,alien3,TRUE,3,0.486302495,107,0,0.4,x,0.6457,0,185,185,185,1,0.3,0.7,0.4,0.6,FALSE,,,,,,,,,,,,,,,,,,,,,,,,,,,,,,,,,
GOSH_A7,2023-11-10_09h55.36.137,two_step_task_legacy,2022.2.4,Win32,59.94844434,22,learning,0,resources/alien4_norm.png,0.6,resources/alien3_norm.png,0.4,TRUE,TRUE,2,0.535153237,purple,x,1.2402,alien4,TRUE,2,0.400824019,108,1,0.6,x,0.451,0,186,186,186,1,0.3,0.7,0.4,0.6,TRUE,,,,,,,,,,,,,,,,,,,,,,,,,,,,,,,,,
GOSH_A7,2023-11-10_09h55.36.137,two_step_task_legacy,2022.2.4,Win32,59.94844434,22,learning,0,resources/alien4_norm.png,0.6,resources/alien3_norm.png,0.4,TRUE,TRUE,2,0.372583949,purple,x,0.2919,alien4,TRUE,3,0.948962783,108,0,0.6,x,0.4158,0,187,187,187,1,0.3,0.7,0.4,0.6,TRUE,,,,,,,,,,,,,,,,,,,,,,,,,,,,,,,,,
GOSH_A7,2023-11-10_09h55.36.137,two_step_task_legacy,2022.2.4,Win32,59.94844434,22,learning,0,resources/alien1_norm.png,0.3,resources/alien2_norm.png,0.7,TRUE,TRUE,3,0.365711086,red,m,0.3062,alien2,TRUE,3,0.873757534,108,0,0.7,m,0.9443,0,188,188,188,1,0.3,0.7,0.4,0.6,FALSE,,,,,,,,,,,,,,,,,,,,,,,,,,,,,,,,,
GOSH_A7,2023-11-10_09h55.36.137,two_step_task_legacy,2022.2.4,Win32,59.94844434,22,learning,0,resources/alien1_norm.png,0.3,resources/alien2_norm.png,0.7,TRUE,TRUE,3,0.002507032,red,m,0.2337,alien1,TRUE,2,0.042862157,109,1,0.3,x,0.3533,0,189,189,189,1,0.3,0.7,0.4,0.6,FALSE,,,,,,,,,,,,,,,,,,,,,,,,,,,,,,,,,
GOSH_A7,2023-11-10_09h55.36.137,two_step_task_legacy,2022.2.4,Win32,59.94844434,22,learning,1,resources/alien3_norm.png,0.4,resources/alien4_norm.png,0.6,TRUE,TRUE,2,0.858037689,purple,m,0.2512,alien3,TRUE,2,0.102264261,110,1,0.4,x,1.1958,0,190,190,190,1,0.3,0.7,0.4,0.6,FALSE,,,,,,,,,,,,,,,,,,,,,,,,,,,,,,,,,
GOSH_A7,2023-11-10_09h55.36.137,two_step_task_legacy,2022.2.4,Win32,59.94844434,22,learning,1,resources/alien3_norm.png,0.4,resources/alien4_norm.png,0.6,TRUE,TRUE,2,0.874963298,purple,m,0.2378,alien3,TRUE,3,0.643989251,110,0,0.4,x,0.6703,0,191,191,191,1,0.3,0.7,0.4,0.6,FALSE,,,,,,,,,,,,,,,,,,,,,,,,,,,,,,,,,
GOSH_A7,2023-11-10_09h55.36.137,two_step_task_legacy,2022.2.4,Win32,59.94844434,22,learning,1,resources/alien4_norm.png,0.6,resources/alien3_norm.png,0.4,TRUE,TRUE,2,0.705959685,purple,m,0.2457,alien4,TRUE,3,0.772342523,110,0,0.6,x,1.1532,0,192,192,192,1,0.3,0.7,0.4,0.6,TRUE,,,,,,,,,,,,,,,,,,,,,,,,,,,,,,,,,
GOSH_A7,2023-11-10_09h55.36.137,two_step_task_legacy,2022.2.4,Win32,59.94844434,22,learning,1,resources/alien4_norm.png,0.6,resources/alien3_norm.png,0.4,TRUE,TRUE,2,0.859301766,purple,m,0.2476,alien3,TRUE,3,0.769589169,110,0,0.4,m,0.7001,0,193,193,193,1,0.3,0.7,0.4,0.6,TRUE,,,,,,,,,,,,,,,,,,,,,,,,,,,,,,,,,
GOSH_A7,2023-11-10_09h55.36.137,two_step_task_legacy,2022.2.4,Win32,59.94844434,22,learning,1,resources/alien4_norm.png,0.6,resources/alien3_norm.png,0.4,TRUE,TRUE,2,0.73744388,purple,m,0.2347,alien4,TRUE,3,0.628790361,110,0,0.6,x,0.8316,0,194,194,194,1,0.3,0.7,0.4,0.6,TRUE,,,,,,,,,,,,,,,,,,,,,,,,,,,,,,,,,
GOSH_A7,2023-11-10_09h55.36.137,two_step_task_legacy,2022.2.4,Win32,59.94844434,22,learning,0,resources/alien1_norm.png,0.3,resources/alien2_norm.png,0.7,TRUE,TRUE,3,0.391947564,red,m,0.2507,alien1,TRUE,3,0.80813468,110,0,0.3,x,0.6295,0,195,195,195,1,0.3,0.7,0.4,0.6,FALSE,,,,,,,,,,,,,,,,,,,,,,,,,,,,,,,,,
GOSH_A7,2023-11-10_09h55.36.137,two_step_task_legacy,2022.2.4,Win32,59.94844434,22,learning,1,resources/alien4_norm.png,0.6,resources/alien3_norm.png,0.4,TRUE,TRUE,2,0.838925658,purple,m,0.2645,alien3,TRUE,2,0.118881109,111,1,0.4,m,0.9115,0,196,196,196,1,0.3,0.7,0.4,0.6,TRUE,,,,,,,,,,,,,,,,,,,,,,,,,,,,,,,,,
GOSH_A7,2023-11-10_09h55.36.137,two_step_task_legacy,2022.2.4,Win32,59.94844434,22,learning,0,resources/alien3_norm.png,0.4,resources/alien4_norm.png,0.6,TRUE,TRUE,2,0.043868275,purple,x,0.351,alien3,TRUE,2,0.128671671,112,1,0.4,x,0.4944,0,197,197,197,1,0.3,0.7,0.4,0.6,FALSE,,,,,,,,,,,,,,,,,,,,,,,,,,,,,,,,,
GOSH_A7,2023-11-10_09h55.36.137,two_step_task_legacy,2022.2.4,Win32,59.94844434,22,learning,0,resources/alien4_norm.png,0.6,resources/alien3_norm.png,0.4,TRUE,TRUE,2,0.217915071,purple,x,0.2718,alien3,TRUE,3,0.518143842,112,0,0.4,m,0.5544,0,198,198,198,1,0.3,0.7,0.4,0.6,TRUE,,,,,,,,,,,,,,,,,,,,,,,,,,,,,,,,,
GOSH_A7,2023-11-10_09h55.36.137,two_step_task_legacy,2022.2.4,Win32,59.94844434,22,learning,0,resources/alien2_norm.png,0.7,resources/alien1_norm.png,0.3,TRUE,TRUE,3,0.663802875,red,m,0.254,alien1,TRUE,3,0.732788991,112,0,0.3,m,0.4273,0,199,199,199,1,0.3,0.7,0.4,0.6,TRUE,,,,,,,,,,,,,,,,,,,,,,,,,,,,,,,,,
GOSH_A7,2023-11-10_09h55.36.137,two_step_task_legacy,2022.2.4,Win32,59.94844434,22,learning,0,resources/alien2_norm.png,0.7,resources/alien1_norm.png,0.3,TRUE,TRUE,3,0.279631655,red,m,0.3104,alien2,TRUE,2,0.116877065,113,1,0.7,x,0.4385,0,200,200,200,1,0.3,0.7,0.4,0.6,TRUE,,,,,,,,,,,,,,,,,,,,,,,,,,,,,,,,,
GOSH_A7,2023-11-10_09h55.36.137,two_step_task_legacy,2022.2.4,Win32,59.94844434,22,learning,0,resources/alien2_norm.png,0.7,resources/alien1_norm.png,0.3,TRUE,TRUE,3,0.491897005,red,m,0.2795,alien2,TRUE,3,0.93066699,113,0,0.7,x,0.4103,0,201,201,201,1,0.3,0.7,0.4,0.6,TRUE,,,,,,,,,,,,,,,,,,,,,,,,,,,,,,,,,
GOSH_A7,2023-11-10_09h55.36.137,two_step_task_legacy,2022.2.4,Win32,59.94844434,22,learning,0,resources/alien4_norm.png,0.6,resources/alien3_norm.png,0.4,TRUE,TRUE,2,0.356036876,purple,x,0.2976,alien4,TRUE,3,0.964749845,113,0,0.6,x,0.918,0,202,202,202,1,0.3,0.7,0.4,0.6,TRUE,,,,,,,,,,,,,,,,,,,,,,,,,,,,,,,,,
GOSH_A7,2023-11-10_09h55.36.137,two_step_task_legacy,2022.2.4,Win32,59.94844434,22,learning,1,resources/alien4_norm.png,0.6,resources/alien3_norm.png,0.4,TRUE,TRUE,2,0.74317182,purple,m,0.4041,alien3,TRUE,3,0.751993481,113,0,0.4,m,0.752,0,203,203,203,1,0.3,0.7,0.4,0.6,TRUE,,,,,,,,,,,,,,,,,,,,,,,,,,,,,,,,,
GOSH_A7,2023-11-10_09h55.36.137,two_step_task_legacy,2022.2.4,Win32,59.94844434,22,learning,1,resources/alien3_norm.png,0.4,resources/alien4_norm.png,0.6,TRUE,TRUE,2,0.751147836,purple,m,0.263,alien3,TRUE,3,0.816231705,113,0,0.4,x,1.4134,0,204,204,204,1,0.3,0.7,0.4,0.6,FALSE,,,,,,,,,,,,,,,,,,,,,,,,,,,,,,,,,
GOSH_A7,2023-11-10_09h55.36.137,two_step_task_legacy,2022.2.4,Win32,59.94844434,22,learning,0,resources/alien2_norm.png,0.7,resources/alien1_norm.png,0.3,TRUE,TRUE,3,0.132441544,red,m,0.2382,alien2,TRUE,2,0.571323203,114,1,0.7,x,0.4864,0,205,205,205,1,0.3,0.7,0.4,0.6,TRUE,,,,,,,,,,,,,,,,,,,,,,,,,,,,,,,,,
GOSH_A7,2023-11-10_09h55.36.137,two_step_task_legacy,2022.2.4,Win32,59.94844434,22,learning,0,resources/alien1_norm.png,0.3,resources/alien2_norm.png,0.7,TRUE,TRUE,3,0.199805439,red,m,0.2395,alien2,TRUE,3,0.917363321,114,0,0.7,m,0.3767,0,206,206,206,1,0.3,0.7,0.4,0.6,FALSE,,,,,,,,,,,,,,,,,,,,,,,,,,,,,,,,,
GOSH_A7,2023-11-10_09h55.36.137,two_step_task_legacy,2022.2.4,Win32,59.94844434,22,learning,1,resources/alien3_norm.png,0.4,resources/alien4_norm.png,0.6,TRUE,TRUE,2,0.97719528,purple,m,0.2458,alien4,TRUE,2,0.482369473,115,1,0.6,m,1.0328,0,207,207,207,1,0.3,0.7,0.4,0.6,FALSE,,,,,,,,,,,,,,,,,,,,,,,,,,,,,,,,,
GOSH_A7,2023-11-10_09h55.36.137,two_step_task_legacy,2022.2.4,Win32,59.94844434,22,learning,0,resources/alien4_norm.png,0.6,resources/alien3_norm.png,0.4,TRUE,TRUE,2,0.638549105,purple,x,0.3033,alien4,TRUE,2,0.074550127,116,1,0.6,x,0.4204,0,208,208,208,1,0.3,0.7,0.4,0.6,TRUE,,,,,,,,,,,,,,,,,,,,,,,,,,,,,,,,,
GOSH_A7,2023-11-10_09h55.36.137,two_step_task_legacy,2022.2.4,Win32,59.94844434,22,learning,0,resources/alien4_norm.png,0.6,resources/alien3_norm.png,0.4,TRUE,TRUE,2,0.408488732,purple,x,0.2751,alien4,TRUE,2,0.548111435,117,1,0.6,x,0.3818,0,209,209,209,1,0.3,0.7,0.4,0.6,TRUE,,,,,,,,,,,,,,,,,,,,,,,,,,,,,,,,,
GOSH_A7,2023-11-10_09h55.36.137,two_step_task_legacy,2022.2.4,Win32,59.94844434,22,learning,0,resources/alien3_norm.png,0.4,resources/alien4_norm.png,0.6,TRUE,TRUE,2,0.127509328,purple,x,0.2508,alien4,TRUE,3,0.902998125,117,0,0.6,m,0.4833,0,210,210,210,1,0.3,0.7,0.4,0.6,FALSE,,,,,,,,,,,,,,,,,,,,,,,,,,,,,,,,,
GOSH_A7,2023-11-10_09h55.36.137,two_step_task_legacy,2022.2.4,Win32,59.94844434,22,learning,0,resources/alien2_norm.png,0.7,resources/alien1_norm.png,0.3,TRUE,TRUE,3,0.177614679,red,m,0.2766,alien1,TRUE,3,0.341875627,117,0,0.3,m,0.6153,0,211,211,211,1,0.3,0.7,0.4,0.6,TRUE,,,,,,,,,,,,,,,,,,,,,,,,,,,,,,,,,
GOSH_A7,2023-11-10_09h55.36.137,two_step_task_legacy,2022.2.4,Win32,59.94844434,22,learning,1,resources/alien2_norm.png,0.7,resources/alien1_norm.png,0.3,TRUE,TRUE,3,0.732210845,red,x,0.2399,alien2,TRUE,2,0.211869938,118,1,0.7,x,1.0291,0,212,212,212,1,0.3,0.7,0.4,0.6,TRUE,,,,,,,,,,,,,,,,,,,,,,,,,,,,,,,,,
GOSH_A7,2023-11-10_09h55.36.137,two_step_task_legacy,2022.2.4,Win32,59.94844434,22,learning,0,resources/alien1_norm.png,0.3,resources/alien2_norm.png,0.7,TRUE,TRUE,3,0.252533293,red,m,0.3225,alien2,TRUE,3,0.777086579,118,0,0.7,m,0.4509,0,213,213,213,1,0.3,0.7,0.4,0.6,FALSE,,,,,,,,,,,,,,,,,,,,,,,,,,,,,,,,,
GOSH_A7,2023-11-10_09h55.36.137,two_step_task_legacy,2022.2.4,Win32,59.94844434,22,learning,0,resources/alien4_norm.png,0.6,resources/alien3_norm.png,0.4,TRUE,TRUE,2,0.41980075,purple,x,0.283,alien3,TRUE,2,0.043858248,119,1,0.4,m,0.4113,0,214,214,214,1,0.3,0.7,0.4,0.6,TRUE,,,,,,,,,,,,,,,,,,,,,,,,,,,,,,,,,
GOSH_A7,2023-11-10_09h55.36.137,two_step_task_legacy,2022.2.4,Win32,59.94844434,22,learning,0,resources/alien4_norm.png,0.6,resources/alien3_norm.png,0.4,TRUE,TRUE,2,0.617420911,purple,x,0.2506,alien3,TRUE,3,0.527899274,119,0,0.4,m,0.4604,0,215,215,215,1,0.3,0.7,0.4,0.6,TRUE,,,,,,,,,,,,,,,,,,,,,,,,,,,,,,,,,
GOSH_A7,2023-11-10_09h55.36.137,two_step_task_legacy,2022.2.4,Win32,59.94844434,22,learning,0,resources/alien4_norm.png,0.6,resources/alien3_norm.png,0.4,TRUE,TRUE,2,0.005888235,purple,x,0.3739,alien4,TRUE,2,0.136509614,120,1,0.6,x,0.404,0,216,216,216,1,0.3,0.7,0.4,0.6,TRUE,,,,,,,,,,,,,,,,,,,,,,,,,,,,,,,,,
GOSH_A7,2023-11-10_09h55.36.137,two_step_task_legacy,2022.2.4,Win32,59.94844434,22,learning,0,resources/alien4_norm.png,0.6,resources/alien3_norm.png,0.4,TRUE,TRUE,2,0.288799932,purple,x,0.2733,alien4,TRUE,3,0.97413809,120,0,0.6,x,0.4341,0,217,217,217,1,0.3,0.7,0.4,0.6,TRUE,,,,,,,,,,,,,,,,,,,,,,,,,,,,,,,,,
GOSH_A7,2023-11-10_09h55.36.137,two_step_task_legacy,2022.2.4,Win32,59.94844434,22,learning,0,resources/alien2_norm.png,0.7,resources/alien1_norm.png,0.3,TRUE,TRUE,3,0.192845524,red,m,0.2753,alien2,TRUE,2,0.649869493,121,1,0.7,x,0.4921,0,218,218,218,1,0.3,0.7,0.4,0.6,TRUE,,,,,,,,,,,,,,,,,,,,,,,,,,,,,,,,,
GOSH_A7,2023-11-10_09h55.36.137,two_step_task_legacy,2022.2.4,Win32,59.94844434,22,learning,1,resources/alien3_norm.png,0.4,resources/alien4_norm.png,0.6,TRUE,TRUE,2,0.948059606,purple,m,0.2743,alien3,TRUE,2,0.136620934,122,1,0.4,x,1.0662,0,219,219,219,1,0.3,0.7,0.4,0.6,FALSE,,,,,,,,,,,,,,,,,,,,,,,,,,,,,,,,,
GOSH_A7,2023-11-10_09h55.36.137,two_step_task_legacy,2022.2.4,Win32,59.94844434,22,learning,0,resources/alien2_norm.png,0.7,resources/alien1_norm.png,0.3,TRUE,TRUE,3,0.611784136,red,m,0.2454,alien2,TRUE,2,0.12634988,123,1,0.7,x,0.4,0,220,220,220,1,0.3,0.7,0.4,0.6,TRUE,,,,,,,,,,,,,,,,,,,,,,,,,,,,,,,,,
GOSH_A7,2023-11-10_09h55.36.137,two_step_task_legacy,2022.2.4,Win32,59.94844434,22,learning,0,resources/alien2_norm.png,0.7,resources/alien1_norm.png,0.3,TRUE,TRUE,3,0.671066176,red,m,0.2437,alien2,TRUE,3,0.942249713,123,0,0.7,x,0.3786,0,221,221,221,1,0.3,0.7,0.4,0.6,TRUE,,,,,,,,,,,,,,,,,,,,,,,,,,,,,,,,,
GOSH_A7,2023-11-10_09h55.36.137,two_step_task_legacy,2022.2.4,Win32,59.94844434,22,learning,0,resources/alien2_norm.png,0.7,resources/alien1_norm.png,0.3,TRUE,TRUE,3,0.194494536,red,m,0.4847,alien1,TRUE,2,0.242349743,124,1,0.3,m,0.817,0,222,222,222,1,0.3,0.7,0.4,0.6,TRUE,,,,,,,,,,,,,,,,,,,,,,,,,,,,,,,,,
GOSH_A7,2023-11-10_09h55.36.137,two_step_task_legacy,2022.2.4,Win32,59.94844434,22,learning,0,resources/alien2_norm.png,0.7,resources/alien1_norm.png,0.3,TRUE,TRUE,3,0.560557664,red,m,0.287,alien1,TRUE,3,0.675934328,124,0,0.3,m,0.3923,0,223,223,223,1,0.3,0.7,0.4,0.6,TRUE,,,,,,,,,,,,,,,,,,,,,,,,,,,,,,,,,
GOSH_A7,2023-11-10_09h55.36.137,two_step_task_legacy,2022.2.4,Win32,59.94844434,22,learning,0,resources/alien4_norm.png,0.6,resources/alien3_norm.png,0.4,TRUE,TRUE,2,0.577422368,purple,x,0.3126,alien3,TRUE,2,0.214073081,125,1,0.4,m,0.6325,0,224,224,224,1,0.3,0.7,0.4,0.6,TRUE,,,,,,,,,,,,,,,,,,,,,,,,,,,,,,,,,
GOSH_A7,2023-11-10_09h55.36.137,two_step_task_legacy,2022.2.4,Win32,59.94844434,22,learning,1,resources/alien1_norm.png,0.3,resources/alien2_norm.png,0.7,TRUE,TRUE,3,0.946991842,red,x,0.2664,alien1,TRUE,3,0.478754728,125,0,0.3,x,1.5865,0,225,225,225,1,0.3,0.7,0.4,0.6,FALSE,,,,,,,,,,,,,,,,,,,,,,,,,,,,,,,,,
GOSH_A7,2023-11-10_09h55.36.137,two_step_task_legacy,2022.2.4,Win32,59.94844434,22,learning,0,resources/alien3_norm.png,0.4,resources/alien4_norm.png,0.6,TRUE,TRUE,2,0.312855941,purple,x,0.2666,alien3,TRUE,3,0.57334384,125,0,0.4,x,0.6124,0,226,226,226,1,0.3,0.7,0.4,0.6,FALSE,,,,,,,,,,,,,,,,,,,,,,,,,,,,,,,,,
GOSH_A7,2023-11-10_09h55.36.137,two_step_task_legacy,2022.2.4,Win32,59.94844434,22,learning,0,resources/alien4_norm.png,0.6,resources/alien3_norm.png,0.4,TRUE,TRUE,2,0.260743797,purple,x,0.3875,alien4,TRUE,2,0.053844794,126,1,0.6,x,0.5164,0,227,227,227,1,0.3,0.7,0.4,0.6,TRUE,,,,,,,,,,,,,,,,,,,,,,,,,,,,,,,,,
GOSH_A7,2023-11-10_09h55.36.137,two_step_task_legacy,2022.2.4,Win32,59.94844434,22,learning,1,resources/alien2_norm.png,0.7,resources/alien1_norm.png,0.3,TRUE,TRUE,3,0.711730119,red,x,0.2605,alien2,TRUE,3,0.849523948,126,0,0.7,x,1.0706,0,228,228,228,1,0.3,0.7,0.4,0.6,TRUE,,,,,,,,,,,,,,,,,,,,,,,,,,,,,,,,,
GOSH_A7,2023-11-10_09h55.36.137,two_step_task_legacy,2022.2.4,Win32,59.94844434,22,learning,0,resources/alien4_norm.png,0.6,resources/alien3_norm.png,0.4,TRUE,TRUE,2,0.155143891,purple,x,0.2364,alien4,TRUE,2,0.521771012,127,1,0.6,x,0.7251,0,229,229,229,1,0.3,0.7,0.4,0.6,TRUE,,,,,,,,,,,,,,,,,,,,,,,,,,,,,,,,,
GOSH_A7,2023-11-10_09h55.36.137,two_step_task_legacy,2022.2.4,Win32,59.94844434,22,learning,1,resources/alien1_norm.png,0.3,resources/alien2_norm.png,0.7,TRUE,TRUE,3,0.932974255,red,x,0.3165,alien2,TRUE,2,0.240522664,128,1,0.7,m,1.9413,0,230,230,230,1,0.3,0.7,0.4,0.6,FALSE,,,,,,,,,,,,,,,,,,,,,,,,,,,,,,,,,
GOSH_A7,2023-11-10_09h55.36.137,two_step_task_legacy,2022.2.4,Win32,59.94844434,22,learning,0,resources/alien3_norm.png,0.4,resources/alien4_norm.png,0.6,TRUE,TRUE,2,0.146443601,purple,x,0.3832,alien4,TRUE,3,0.770475014,128,0,0.6,m,1.0089,0,231,231,231,1,0.3,0.7,0.4,0.6,FALSE,,,,,,,,,,,,,,,,,,,,,,,,,,,,,,,,,
GOSH_A7,2023-11-10_09h55.36.137,two_step_task_legacy,2022.2.4,Win32,59.94844434,22,learning,1,resources/alien3_norm.png,0.4,resources/alien4_norm.png,0.6,TRUE,TRUE,2,0.987740172,purple,m,0.2348,alien3,TRUE,3,0.878721219,128,0,0.4,x,1.0014,0,232,232,232,1,0.3,0.7,0.4,0.6,FALSE,,,,,,,,,,,,,,,,,,,,,,,,,,,,,,,,,
GOSH_A7,2023-11-10_09h55.36.137,two_step_task_legacy,2022.2.4,Win32,59.94844434,22,learning,1,resources/alien3_norm.png,0.4,resources/alien4_norm.png,0.6,TRUE,TRUE,2,0.893259641,purple,m,0.2377,alien4,TRUE,2,0.32322828,129,1,0.6,m,0.8796,0,233,233,233,1,0.3,0.7,0.4,0.6,FALSE,,,,,,,,,,,,,,,,,,,,,,,,,,,,,,,,,
GOSH_A7,2023-11-10_09h55.36.137,two_step_task_legacy,2022.2.4,Win32,59.94844434,22,learning,0,resources/alien3_norm.png,0.4,resources/alien4_norm.png,0.6,TRUE,TRUE,2,0.600189589,purple,x,0.3506,alien4,TRUE,2,0.494497503,130,1,0.6,m,0.3949,0,234,234,234,1,0.3,0.7,0.4,0.6,FALSE,,,,,,,,,,,,,,,,,,,,,,,,,,,,,,,,,
GOSH_A7,2023-11-10_09h55.36.137,two_step_task_legacy,2022.2.4,Win32,59.94844434,22,learning,1,resources/alien2_norm.png,0.7,resources/alien1_norm.png,0.3,TRUE,TRUE,3,0.960142264,red,x,0.2875,alien2,TRUE,2,0.164812878,131,1,0.7,x,1.5073,0,235,235,235,1,0.3,0.7,0.4,0.6,TRUE,,,,,,,,,,,,,,,,,,,,,,,,,,,,,,,,,
GOSH_A7,2023-11-10_09h55.36.137,two_step_task_legacy,2022.2.4,Win32,59.94844434,22,learning,1,resources/alien2_norm.png,0.7,resources/alien1_norm.png,0.3,TRUE,TRUE,3,0.848361734,red,x,0.2791,alien2,TRUE,2,0.094183435,132,1,0.7,x,0.6771,0,236,236,236,1,0.3,0.7,0.4,0.6,TRUE,,,,,,,,,,,,,,,,,,,,,,,,,,,,,,,,,
GOSH_A7,2023-11-10_09h55.36.137,two_step_task_legacy,2022.2.4,Win32,59.94844434,22,learning,0,resources/alien2_norm.png,0.7,resources/alien1_norm.png,0.3,TRUE,TRUE,3,0.337207149,red,m,0.2735,alien2,TRUE,2,0.007528342,133,1,0.7,x,0.4831,0,237,237,237,1,0.3,0.7,0.4,0.6,TRUE,,,,,,,,,,,,,,,,,,,,,,,,,,,,,,,,,
GOSH_A7,2023-11-10_09h55.36.137,two_step_task_legacy,2022.2.4,Win32,59.94844434,22,learning,0,resources/alien2_norm.png,0.7,resources/alien1_norm.png,0.3,TRUE,TRUE,3,0.181836304,red,m,0.2465,alien2,TRUE,3,0.773417701,133,0,0.7,x,0.4175,0,238,238,238,1,0.3,0.7,0.4,0.6,TRUE,,,,,,,,,,,,,,,,,,,,,,,,,,,,,,,,,
GOSH_A7,2023-11-10_09h55.36.137,two_step_task_legacy,2022.2.4,Win32,59.94844434,22,learning,0,resources/alien4_norm.png,0.6,resources/alien3_norm.png,0.4,TRUE,TRUE,2,0.169976443,purple,x,0.6176,alien4,TRUE,3,0.883654362,133,0,0.6,x,1.1363,0,239,239,239,1,0.3,0.7,0.4,0.6,TRUE,,,,,,,,,,,,,,,,,,,,,,,,,,,,,,,,,
GOSH_A7,2023-11-10_09h55.36.137,two_step_task_legacy,2022.2.4,Win32,59.94844434,22,learning,1,resources/alien2_norm.png,0.7,resources/alien1_norm.png,0.3,TRUE,TRUE,3,0.92334153,red,x,0.642,alien1,TRUE,2,0.222524192,134,1,0.3,m,0.8016,0,240,240,240,1,0.3,0.7,0.4,0.6,TRUE,,,,,,,,,,,,,,,,,,,,,,,,,,,,,,,,,
GOSH_A7,2023-11-10_09h55.36.137,two_step_task_legacy,2022.2.4,Win32,59.94844434,22,learning,0,resources/alien1_norm.png,0.3,resources/alien2_norm.png,0.7,TRUE,TRUE,3,0.019351341,red,m,0.26,alien1,TRUE,3,0.33770292,134,0,0.3,x,0.3822,0,241,241,241,1,0.3,0.7,0.4,0.6,FALSE,,,,,,,,,,,,,,,,,,,,,,,,,,,,,,,,,
GOSH_A7,2023-11-10_09h55.36.137,two_step_task_legacy,2022.2.4,Win32,59.94844434,22,learning,0,resources/alien3_norm.png,0.4,resources/alien4_norm.png,0.6,TRUE,TRUE,2,0.305748595,purple,x,0.8274,alien3,TRUE,3,0.959100357,134,0,0.4,x,0.449,0,242,242,242,1,0.3,0.7,0.4,0.6,FALSE,,,,,,,,,,,,,,,,,,,,,,,,,,,,,,,,,
GOSH_A7,2023-11-10_09h55.36.137,two_step_task_legacy,2022.2.4,Win32,59.94844434,22,learning,0,resources/alien2_norm.png,0.7,resources/alien1_norm.png,0.3,TRUE,TRUE,3,0.498706551,red,m,0.3498,alien2,TRUE,2,0.620369802,135,1,0.7,x,0.3322,0,243,243,243,1,0.3,0.7,0.4,0.6,TRUE,,,,,,,,,,,,,,,,,,,,,,,,,,,,,,,,,
GOSH_A7,2023-11-10_09h55.36.137,two_step_task_legacy,2022.2.4,Win32,59.94844434,22,learning,0,resources/alien2_norm.png,0.7,resources/alien1_norm.png,0.3,TRUE,TRUE,3,0.574634963,red,m,0.2675,alien2,TRUE,2,0.690388649,136,1,0.7,x,0.3955,0,244,244,244,1,0.3,0.7,0.4,0.6,TRUE,,,,,,,,,,,,,,,,,,,,,,,,,,,,,,,,,
GOSH_A7,2023-11-10_09h55.36.137,two_step_task_legacy,2022.2.4,Win32,59.94844434,22,learning,0,resources/alien1_norm.png,0.3,resources/alien2_norm.png,0.7,TRUE,TRUE,3,0.56945678,red,m,0.2555,alien2,TRUE,2,0.052785537,137,1,0.7,m,0.3932,0,245,245,245,1,0.3,0.7,0.4,0.6,FALSE,,,,,,,,,,,,,,,,,,,,,,,,,,,,,,,,,
GOSH_A7,2023-11-10_09h55.36.137,two_step_task_legacy,2022.2.4,Win32,59.94844434,22,learning,1,resources/alien3_norm.png,0.4,resources/alien4_norm.png,0.6,TRUE,TRUE,2,0.873978527,purple,m,0.234,alien3,TRUE,3,0.740665369,137,0,0.4,x,1.227,0,246,246,246,1,0.3,0.7,0.4,0.6,FALSE,,,,,,,,,,,,,,,,,,,,,,,,,,,,,,,,,
GOSH_A7,2023-11-10_09h55.36.137,two_step_task_legacy,2022.2.4,Win32,59.94844434,22,learning,0,resources/alien1_norm.png,0.3,resources/alien2_norm.png,0.7,TRUE,TRUE,3,0.559615007,red,m,0.245,alien2,TRUE,2,0.153086315,138,1,0.7,m,0.5865,0,247,247,247,1,0.3,0.7,0.4,0.6,FALSE,,,,,,,,,,,,,,,,,,,,,,,,,,,,,,,,,
GOSH_A7,2023-11-10_09h55.36.137,two_step_task_legacy,2022.2.4,Win32,59.94844434,22,learning,1,resources/alien3_norm.png,0.4,resources/alien4_norm.png,0.6,TRUE,TRUE,2,0.74323238,purple,m,0.5827,alien4,TRUE,3,0.971698687,138,0,0.6,m,1.0036,0,248,248,248,1,0.3,0.7,0.4,0.6,FALSE,,,,,,,,,,,,,,,,,,,,,,,,,,,,,,,,,
GOSH_A7,2023-11-10_09h55.36.137,two_step_task_legacy,2022.2.4,Win32,59.94844434,22,learning,1,resources/alien3_norm.png,0.4,resources/alien4_norm.png,0.6,TRUE,TRUE,2,0.803358977,purple,m,0.2442,alien3,TRUE,2,0.315535116,139,1,0.4,x,1.0045,0,249,249,249,1,0.3,0.7,0.4,0.6,FALSE,,,,,,,,,,,,,,,,,,,,,,,,,,,,,,,,,
GOSH_A7,2023-11-10_09h55.36.137,two_step_task_legacy,2022.2.4,Win32,59.94844434,22,learning,1,resources/alien4_norm.png,0.6,resources/alien3_norm.png,0.4,TRUE,TRUE,2,0.885843336,purple,m,0.3507,alien3,TRUE,3,0.629532585,139,0,0.4,m,1.3541,0,250,250,250,1,0.3,0.7,0.4,0.6,TRUE,,,,,,,,,,,,,,,,,,,,,,,,,,,,,,,,,
GOSH_A7,2023-11-10_09h55.36.137,two_step_task_legacy,2022.2.4,Win32,59.94844434,22,learning,0,resources/alien2_norm.png,0.7,resources/alien1_norm.png,0.3,TRUE,TRUE,3,0.527261349,red,m,0.2364,alien2,TRUE,3,0.870663044,139,0,0.7,x,0.5776,0,251,251,251,1,0.3,0.7,0.4,0.6,TRUE,,,,,,,,,,,,,,,,,,,,,,,,,,,,,,,,,
GOSH_A7,2023-11-10_09h55.36.137,two_step_task_legacy,2022.2.4,Win32,59.94844434,22,learning,1,resources/alien4_norm.png,0.6,resources/alien3_norm.png,0.4,TRUE,TRUE,2,0.760582877,purple,m,0.2388,alien4,TRUE,2,0.404987274,140,1,0.6,x,1.0893,0,252,252,252,1,0.3,0.7,0.4,0.6,TRUE,,,,,,,,,,,,,,,,,,,,,,,,,,,,,,,,,
GOSH_A7,2023-11-10_09h55.36.137,two_step_task_legacy,2022.2.4,Win32,59.94844434,22,learning,0,resources/alien3_norm.png,0.4,resources/alien4_norm.png,0.6,TRUE,TRUE,2,0.663712746,purple,x,0.2716,alien4,TRUE,2,0.027349208,141,1,0.6,m,0.4507,0,253,253,253,1,0.3,0.7,0.4,0.6,FALSE,,,,,,,,,,,,,,,,,,,,,,,,,,,,,,,,,
GOSH_A7,2023-11-10_09h55.36.137,two_step_task_legacy,2022.2.4,Win32,59.94844434,22,learning,0,resources/alien4_norm.png,0.6,resources/alien3_norm.png,0.4,TRUE,TRUE,2,0.19208987,purple,x,0.2502,alien4,TRUE,2,0.020145082,142,1,0.6,x,0.4012,0,254,254,254,1,0.3,0.7,0.4,0.6,TRUE,,,,,,,,,,,,,,,,,,,,,,,,,,,,,,,,,
GOSH_A7,2023-11-10_09h55.36.137,two_step_task_legacy,2022.2.4,Win32,59.94844434,22,learning,0,resources/alien3_norm.png,0.4,resources/alien4_norm.png,0.6,TRUE,TRUE,2,0.377473751,purple,x,0.2481,alien4,TRUE,3,0.858273833,142,0,0.6,m,0.4674,0,255,255,255,1,0.3,0.7,0.4,0.6,FALSE,,,,,,,,,,,,,,,,,,,,,,,,,,,,,,,,,
GOSH_A7,2023-11-10_09h55.36.137,two_step_task_legacy,2022.2.4,Win32,59.94844434,22,learning,0,resources/alien1_norm.png,0.3,resources/alien2_norm.png,0.7,TRUE,TRUE,3,0.428501303,red,m,0.7858,alien1,TRUE,3,0.7667217,142,0,0.3,x,0.4166,0,256,256,256,1,0.3,0.7,0.4,0.6,FALSE,,,,,,,,,,,,,,,,,,,,,,,,,,,,,,,,,
GOSH_A7,2023-11-10_09h55.36.137,two_step_task_legacy,2022.2.4,Win32,59.94844434,22,learning,0,resources/alien2_norm.png,0.7,resources/alien1_norm.png,0.3,TRUE,TRUE,3,0.321601389,red,m,0.4509,alien2,TRUE,2,0.232345781,143,1,0.7,x,0.4122,0,257,257,257,1,0.3,0.7,0.4,0.6,TRUE,,,,,,,,,,,,,,,,,,,,,,,,,,,,,,,,,
GOSH_A7,2023-11-10_09h55.36.137,two_step_task_legacy,2022.2.4,Win32,59.94844434,22,learning,1,resources/alien3_norm.png,0.4,resources/alien4_norm.png,0.6,TRUE,TRUE,2,0.912966907,purple,m,0.2404,alien3,TRUE,3,0.928757458,143,0,0.4,x,2.4892,0,258,258,258,1,0.3,0.7,0.4,0.6,FALSE,,,,,,,,,,,,,,,,,,,,,,,,,,,,,,,,,
GOSH_A7,2023-11-10_09h55.36.137,two_step_task_legacy,2022.2.4,Win32,59.94844434,22,learning,0,resources/alien2_norm.png,0.7,resources/alien1_norm.png,0.3,TRUE,TRUE,3,0.384805966,red,m,0.2674,alien2,TRUE,2,0.343219143,144,1,0.7,x,0.695,0,259,259,259,1,0.3,0.7,0.4,0.6,TRUE,,,,,,,,,,,,,,,,,,,,,,,,,,,,,,,,,
GOSH_A7,2023-11-10_09h55.36.137,two_step_task_legacy,2022.2.4,Win32,59.94844434,22,learning,1,resources/alien4_norm.png,0.6,resources/alien3_norm.png,0.4,TRUE,TRUE,2,0.833528504,purple,m,0.2812,alien4,TRUE,3,0.845991177,144,0,0.6,x,1.3395,0,260,260,260,1,0.3,0.7,0.4,0.6,TRUE,,,,,,,,,,,,,,,,,,,,,,,,,,,,,,,,,
GOSH_A7,2023-11-10_09h55.36.137,two_step_task_legacy,2022.2.4,Win32,59.94844434,22,learning,0,resources/alien1_norm.png,0.3,resources/alien2_norm.png,0.7,TRUE,TRUE,3,0.250882423,red,m,0.2723,alien2,TRUE,3,0.922870571,144,0,0.7,m,0.5991,0,261,261,261,1,0.3,0.7,0.4,0.6,FALSE,,,,,,,,,,,,,,,,,,,,,,,,,,,,,,,,,
GOSH_A7,2023-11-10_09h55.36.137,two_step_task_legacy,2022.2.4,Win32,59.94844434,22,learning,0,resources/alien2_norm.png,0.7,resources/alien1_norm.png,0.3,TRUE,TRUE,3,0.032580214,red,m,0.2388,alien2,TRUE,2,0.181380843,145,1,0.7,x,0.3896,0,262,262,262,1,0.3,0.7,0.4,0.6,TRUE,,,,,,,,,,,,,,,,,,,,,,,,,,,,,,,,,
GOSH_A7,2023-11-10_09h55.36.137,two_step_task_legacy,2022.2.4,Win32,59.94844434,22,learning,0,resources/alien2_norm.png,0.7,resources/alien1_norm.png,0.3,TRUE,TRUE,3,0.628187362,red,m,0.233,alien2,TRUE,3,0.950752675,145,0,0.7,x,0.4174,0,263,263,263,1,0.3,0.7,0.4,0.6,TRUE,,,,,,,,,,,,,,,,,,,,,,,,,,,,,,,,,
GOSH_A7,2023-11-10_09h55.36.137,two_step_task_legacy,2022.2.4,Win32,59.94844434,22,learning,1,resources/alien4_norm.png,0.6,resources/alien3_norm.png,0.4,TRUE,TRUE,2,0.807093097,purple,m,0.5009,alien3,TRUE,2,0.051776432,146,1,0.4,m,1.3477,0,264,264,264,1,0.3,0.7,0.4,0.6,TRUE,,,,,,,,,,,,,,,,,,,,,,,,,,,,,,,,,
GOSH_A7,2023-11-10_09h55.36.137,two_step_task_legacy,2022.2.4,Win32,59.94844434,22,learning,1,resources/alien2_norm.png,0.7,resources/alien1_norm.png,0.3,TRUE,TRUE,3,0.991803675,red,x,0.2794,alien1,TRUE,3,0.669597549,146,0,0.3,m,2.063,0,265,265,265,1,0.3,0.7,0.4,0.6,TRUE,,,,,,,,,,,,,,,,,,,,,,,,,,,,,,,,,
GOSH_A7,2023-11-10_09h55.36.137,two_step_task_legacy,2022.2.4,Win32,59.94844434,22,learning,0,resources/alien3_norm.png,0.4,resources/alien4_norm.png,0.6,TRUE,TRUE,2,0.539473756,purple,x,0.2767,alien3,TRUE,2,0.246333971,147,1,0.4,x,0.3764,0,266,266,266,1,0.3,0.7,0.4,0.6,FALSE,,,,,,,,,,,,,,,,,,,,,,,,,,,,,,,,,
GOSH_A7,2023-11-10_09h55.36.137,two_step_task_legacy,2022.2.4,Win32,59.94844434,22,learning,0,resources/alien3_norm.png,0.4,resources/alien4_norm.png,0.6,TRUE,TRUE,2,0.119674524,purple,x,0.2775,alien3,TRUE,3,0.516478258,147,0,0.4,x,0.4509,0,267,267,267,1,0.3,0.7,0.4,0.6,FALSE,,,,,,,,,,,,,,,,,,,,,,,,,,,,,,,,,
GOSH_A7,2023-11-10_09h55.36.137,two_step_task_legacy,2022.2.4,Win32,59.94844434,22,learning,0,resources/alien4_norm.png,0.6,resources/alien3_norm.png,0.4,TRUE,TRUE,2,0.225332813,purple,x,0.3507,alien4,TRUE,3,0.776817856,147,0,0.6,x,0.4223,0,268,268,268,1,0.3,0.7,0.4,0.6,TRUE,,,,,,,,,,,,,,,,,,,,,,,,,,,,,,,,,
GOSH_A7,2023-11-10_09h55.36.137,two_step_task_legacy,2022.2.4,Win32,59.94844434,22,learning,0,resources/alien1_norm.png,0.3,resources/alien2_norm.png,0.7,TRUE,TRUE,3,0.409901094,red,m,0.2998,alien2,TRUE,2,0.492417075,148,1,0.7,m,0.8525,0,269,269,269,1,0.3,0.7,0.4,0.6,FALSE,,,,,,,,,,,,,,,,,,,,,,,,,,,,,,,,,
GOSH_A7,2023-11-10_09h55.36.137,two_step_task_legacy,2022.2.4,Win32,59.94844434,22,learning,0,resources/alien2_norm.png,0.7,resources/alien1_norm.png,0.3,TRUE,TRUE,3,0.461961076,red,m,0.2333,alien2,TRUE,2,0.564833593,149,1,0.7,x,0.3997,0,270,270,270,1,0.3,0.7,0.4,0.6,TRUE,,,,,,,,,,,,,,,,,,,,,,,,,,,,,,,,,
GOSH_A7,2023-11-10_09h55.36.137,two_step_task_legacy,2022.2.4,Win32,59.94844434,22,learning,1,resources/alien4_norm.png,0.6,resources/alien3_norm.png,0.4,TRUE,TRUE,2,0.80354478,purple,m,0.2508,alien4,TRUE,2,0.397398856,150,1,0.6,x,1.7768,0,271,271,271,1,0.3,0.7,0.4,0.6,TRUE,,,,,,,,,,,,,,,,,,,,,,,,,,,,,,,,,
GOSH_A7,2023-11-10_09h55.36.137,two_step_task_legacy,2022.2.4,Win32,59.94844434,22,learning,1,resources/alien4_norm.png,0.6,resources/alien3_norm.png,0.4,TRUE,TRUE,2,0.767253092,purple,m,0.2507,alien4,TRUE,2,0.07063874,151,1,0.6,x,0.8011,0,272,272,272,1,0.3,0.7,0.4,0.6,TRUE,,,,,,,,,,,,,,,,,,,,,,,,,,,,,,,,,
GOSH_A7,2023-11-10_09h55.36.137,two_step_task_legacy,2022.2.4,Win32,59.94844434,22,learning,1,resources/alien3_norm.png,0.4,resources/alien4_norm.png,0.6,TRUE,TRUE,2,0.977730533,purple,m,0.2437,alien4,TRUE,3,0.909673334,151,0,0.6,m,0.7342,0,273,273,273,1,0.3,0.7,0.4,0.6,FALSE,,,,,,,,,,,,,,,,,,,,,,,,,,,,,,,,,
GOSH_A7,2023-11-10_09h55.36.137,two_step_task_legacy,2022.2.4,Win32,59.94844434,22,learning,0,resources/alien2_norm.png,0.7,resources/alien1_norm.png,0.3,TRUE,TRUE,3,0.468874862,red,m,0.2563,alien2,TRUE,2,0.500200518,152,1,0.7,x,0.67,0,274,274,274,1,0.3,0.7,0.4,0.6,TRUE,,,,,,,,,,,,,,,,,,,,,,,,,,,,,,,,,
GOSH_A7,2023-11-10_09h55.36.137,two_step_task_legacy,2022.2.4,Win32,59.94844434,22,learning,0,resources/alien2_norm.png,0.7,resources/alien1_norm.png,0.3,TRUE,TRUE,3,0.662259021,red,m,0.2205,alien2,TRUE,3,0.853362912,152,0,0.7,x,0.4715,0,275,275,275,1,0.3,0.7,0.4,0.6,TRUE,,,,,,,,,,,,,,,,,,,,,,,,,,,,,,,,,
GOSH_A7,2023-11-10_09h55.36.137,two_step_task_legacy,2022.2.4,Win32,59.94844434,22,learning,0,resources/alien4_norm.png,0.6,resources/alien3_norm.png,0.4,TRUE,TRUE,2,0.608843673,purple,x,0.3333,alien3,TRUE,2,0.20046621,153,1,0.4,m,1.0868,0,276,276,276,1,0.3,0.7,0.4,0.6,TRUE,,,,,,,,,,,,,,,,,,,,,,,,,,,,,,,,,
GOSH_A7,2023-11-10_09h55.36.137,two_step_task_legacy,2022.2.4,Win32,59.94844434,22,learning,0,resources/alien4_norm.png,0.6,resources/alien3_norm.png,0.4,TRUE,TRUE,2,0.250698675,purple,x,0.256,alien3,TRUE,3,0.687952967,153,0,0.4,m,0.4889,0,277,277,277,1,0.3,0.7,0.4,0.6,TRUE,,,,,,,,,,,,,,,,,,,,,,,,,,,,,,,,,
GOSH_A7,2023-11-10_09h55.36.137,two_step_task_legacy,2022.2.4,Win32,59.94844434,22,learning,0,resources/alien1_norm.png,0.3,resources/alien2_norm.png,0.7,TRUE,TRUE,3,0.568925665,red,m,0.2519,alien2,TRUE,2,0.340686019,154,1,0.7,m,0.5302,0,278,278,278,1,0.3,0.7,0.4,0.6,FALSE,,,,,,,,,,,,,,,,,,,,,,,,,,,,,,,,,
GOSH_A7,2023-11-10_09h55.36.137,two_step_task_legacy,2022.2.4,Win32,59.94844434,22,learning,1,resources/alien4_norm.png,0.6,resources/alien3_norm.png,0.4,TRUE,TRUE,2,0.948492313,purple,m,0.2894,alien3,TRUE,3,0.714265952,154,0,0.4,m,0.906,0,279,279,279,1,0.3,0.7,0.4,0.6,TRUE,,,,,,,,,,,,,,,,,,,,,,,,,,,,,,,,,
GOSH_A7,2023-11-10_09h55.36.137,two_step_task_legacy,2022.2.4,Win32,59.94844434,22,learning,0,resources/alien2_norm.png,0.7,resources/alien1_norm.png,0.3,TRUE,TRUE,3,0.129924225,red,m,0.2841,alien2,TRUE,2,0.085444869,155,1,0.7,x,0.6405,0,280,280,280,1,0.3,0.7,0.4,0.6,TRUE,,,,,,,,,,,,,,,,,,,,,,,,,,,,,,,,,
GOSH_A7,2023-11-10_09h55.36.137,two_step_task_legacy,2022.2.4,Win32,59.94844434,22,learning,0,resources/alien1_norm.png,0.3,resources/alien2_norm.png,0.7,TRUE,TRUE,3,0.479808248,red,m,0.2339,alien2,TRUE,3,0.983293841,155,0,0.7,m,0.7438,0,281,281,281,1,0.3,0.7,0.4,0.6,FALSE,,,,,,,,,,,,,,,,,,,,,,,,,,,,,,,,,
GOSH_A7,2023-11-10_09h55.36.137,two_step_task_legacy,2022.2.4,Win32,59.94844434,22,learning,1,resources/alien3_norm.png,0.4,resources/alien4_norm.png,0.6,TRUE,TRUE,2,0.9161114,purple,m,0.2648,alien4,TRUE,3,0.770747403,155,0,0.6,m,0.8059,0,282,282,282,1,0.3,0.7,0.4,0.6,FALSE,,,,,,,,,,,,,,,,,,,,,,,,,,,,,,,,,
GOSH_A7,2023-11-10_09h55.36.137,two_step_task_legacy,2022.2.4,Win32,59.94844434,22,learning,0,resources/alien2_norm.png,0.7,resources/alien1_norm.png,0.3,TRUE,TRUE,3,0.618060314,red,m,0.3172,alien1,TRUE,3,0.627500055,155,0,0.3,m,0.5858,0,283,283,283,1,0.3,0.7,0.4,0.6,TRUE,,,,,,,,,,,,,,,,,,,,,,,,,,,,,,,,,
GOSH_A7,2023-11-10_09h55.36.137,two_step_task_legacy,2022.2.4,Win32,59.94844434,22,learning,0,resources/alien1_norm.png,0.3,resources/alien2_norm.png,0.7,TRUE,TRUE,3,0.180295356,red,m,0.2664,alien2,TRUE,3,0.954701242,155,0,0.7,m,0.4132,0,284,284,284,1,0.3,0.7,0.4,0.6,FALSE,,,,,,,,,,,,,,,,,,,,,,,,,,,,,,,,,
GOSH_A7,2023-11-10_09h55.36.137,two_step_task_legacy,2022.2.4,Win32,59.94844434,22,learning,0,resources/alien3_norm.png,0.4,resources/alien4_norm.png,0.6,TRUE,TRUE,2,0.091072774,purple,x,0.3333,alien3,TRUE,2,0.015486583,156,1,0.4,x,0.4866,0,285,285,285,1,0.3,0.7,0.4,0.6,FALSE,,,,,,,,,,,,,,,,,,,,,,,,,,,,,,,,,
GOSH_A7,2023-11-10_09h55.36.137,two_step_task_legacy,2022.2.4,Win32,59.94844434,22,learning,0,resources/alien4_norm.png,0.6,resources/alien3_norm.png,0.4,TRUE,TRUE,2,0.439427661,purple,x,0.2579,alien3,TRUE,3,0.634202816,156,0,0.4,m,0.4504,0,286,286,286,1,0.3,0.7,0.4,0.6,TRUE,,,,,,,,,,,,,,,,,,,,,,,,,,,,,,,,,
GOSH_A7,2023-11-10_09h55.36.137,two_step_task_legacy,2022.2.4,Win32,59.94844434,22,learning,1,resources/alien1_norm.png,0.3,resources/alien2_norm.png,0.7,TRUE,TRUE,3,0.981124063,red,x,0.2833,alien2,TRUE,2,0.550915698,157,1,0.7,m,0.6423,0,287,287,287,1,0.3,0.7,0.4,0.6,FALSE,,,,,,,,,,,,,,,,,,,,,,,,,,,,,,,,,
GOSH_A7,2023-11-10_09h55.36.137,two_step_task_legacy,2022.2.4,Win32,59.94844434,22,learning,1,resources/alien4_norm.png,0.6,resources/alien3_norm.png,0.4,TRUE,TRUE,2,0.749172157,purple,m,0.2673,alien4,TRUE,2,0.332043415,158,1,0.6,x,0.8162,0,288,288,288,1,0.3,0.7,0.4,0.6,TRUE,,,,,,,,,,,,,,,,,,,,,,,,,,,,,,,,,
GOSH_A7,2023-11-10_09h55.36.137,two_step_task_legacy,2022.2.4,Win32,59.94844434,22,learning,0,resources/alien2_norm.png,0.7,resources/alien1_norm.png,0.3,TRUE,TRUE,3,0.560470509,red,m,0.4373,alien2,TRUE,2,0.262686801,159,1,0.7,x,0.4325,0,289,289,289,1,0.3,0.7,0.4,0.6,TRUE,,,,,,,,,,,,,,,,,,,,,,,,,,,,,,,,,
