participant,date,expName,psychopyVersion,OS,frameRate,payoff_list,phase,rare_transition,left_alien,left_probabilty,right_alien,right_probabilty,select_sp,show_alien,rocket_trans,rand_sp,planet,key_resp_exp.keys,key_resp_exp.rt,chosen_alien,select_alien,transmoney,rand_money,totalgold,trialgain,probs,key_resp_exp_alien.keys,key_resp_exp_alien.rt,loop_exp.thisRepN,loop_exp.thisTrialN,loop_exp.thisN,loop_exp.thisIndex,loop_exp.ran,p1,p2,p3,p4,flip_sides,static_probability_left,static_probability_right,key_resp_probe.keys,key_resp_probe.rt,accuracy,probe_loop.thisRepN,probe_loop.thisTrialN,probe_loop.thisN,probe_loop.thisIndex,probe_loop.ran,probe_la,probe_ra,key_resp.keys,key_resp.rt,slider.response,slider.rt,post_loop.thisRepN,post_loop.thisTrialN,post_loop.thisN,post_loop.thisIndex,post_loop.ran,text_up,pos_text_up,text_down,pos_img_left_up,left_up_img,right_up_img,left_down_img_1,left_down_img_2,right_down_img_1,right_down_img_2,size,show_slider
GOSH_A9,2023-11-10_10h38.37.768,two_step_task_legacy,2022.2.4,Win32,60.09254252,,,,,,,,,,,,,,,,,,,,,,,,,,,,,,,,,,,,,,,,,,,,,,,,,,,,,,,,,,,,,,,,,,
GOSH_A9,2023-11-10_10h38.37.768,two_step_task_legacy,2022.2.4,Win32,60.09254252,,,,,,,,,,,,,,,,,,,,,,,,,,,,,,,,,,,,,,,,,,,,,,,,,,,,,,,,,,,,,,,,,,
GOSH_A9,2023-11-10_10h38.37.768,two_step_task_legacy,2022.2.4,Win32,60.09254252,,,,,,,,,,,,,,,,,,,,,,,,,,,,,,,,,,,,,,,,,,,,,,,,,,,,,,,,,,,,,,,,,,
GOSH_A9,2023-11-10_10h38.37.768,two_step_task_legacy,2022.2.4,Win32,60.09254252,,,,,,,,,,,,,,,,,,,,,,,,,,,,,,,,,,,,,,,,,,,,,,,,,,,,,,,,,,,,,,,,,,
GOSH_A9,2023-11-10_10h38.37.768,two_step_task_legacy,2022.2.4,Win32,60.09254252,,,,,,,,,,,,,,,,,,,,,,,,,,,,,,,,,,,,,,,,,,,,,,,,,,,,,,,,,,,,,,,,,,
GOSH_A9,2023-11-10_10h38.37.768,two_step_task_legacy,2022.2.4,Win32,60.09254252,,,,,,,,,,,,,,,,,,,,,,,,,,,,,,,,,,,,,,,,,,,,,,,,,,,,,,,,,,,,,,,,,,
GOSH_A9,2023-11-10_10h38.37.768,two_step_task_legacy,2022.2.4,Win32,60.09254252,,,,,,,,,,,,,,,,,,,,,,,,,,,,,,,,,,,,,,,,,,,,,,,,,,,,,,,,,,,,,,,,,,
GOSH_A9,2023-11-10_10h38.37.768,two_step_task_legacy,2022.2.4,Win32,60.09254252,,,,,,,,,,,,,,,,,,,,,,,,,,,,,,,,,,,,,,,,,,,,,,,,,,,,,,,,,,,,,,,,,,
GOSH_A9,2023-11-10_10h38.37.768,two_step_task_legacy,2022.2.4,Win32,60.09254252,,,,,,,,,,,,,,,,,,,,,,,,,,,,,,,,,,,,,,,,,,,,,,,,,,,,,,,,,,,,,,,,,,
GOSH_A9,2023-11-10_10h38.37.768,two_step_task_legacy,2022.2.4,Win32,60.09254252,,,,,,,,,,,,,,,,,,,,,,,,,,,,,,,,,,,,,,,,,,,,,,,,,,,,,,,,,,,,,,,,,,
GOSH_A9,2023-11-10_10h38.37.768,two_step_task_legacy,2022.2.4,Win32,60.09254252,,,,,,,,,,,,,,,,,,,,,,,,,,,,,,,,,,,,,,,,,,,,,,,,,,,,,,,,,,,,,,,,,,
GOSH_A9,2023-11-10_10h38.37.768,two_step_task_legacy,2022.2.4,Win32,60.09254252,32,learning,0,resources/alien3_norm.png,0.405114184,resources/alien4_norm.png,0.576765095,TRUE,TRUE,2,0.255748281,purple,x,2.1042,alien3,TRUE,2,0.271006752,1,1,0.405114184,x,1.1496,0,0,0,0,1,0.308256968,0.40239633,0.405114184,0.576765095,FALSE,,,,,,,,,,,,,,,,,,,,,,,,,,,,,,,,,
GOSH_A9,2023-11-10_10h38.37.768,two_step_task_legacy,2022.2.4,Win32,60.09254252,32,learning,0,resources/alien4_norm.png,0.559690988,resources/alien3_norm.png,0.375848967,TRUE,TRUE,2,0.076393166,purple,x,0.7673,alien3,TRUE,2,0.066489134,2,1,0.375848967,m,1.1171,0,1,1,1,1,0.303750526,0.388624967,0.375848967,0.559690988,TRUE,,,,,,,,,,,,,,,,,,,,,,,,,,,,,,,,,
GOSH_A9,2023-11-10_10h38.37.768,two_step_task_legacy,2022.2.4,Win32,60.09254252,32,learning,0,resources/alien3_norm.png,0.35374972,resources/alien4_norm.png,0.549731917,TRUE,TRUE,2,0.49328035,purple,x,0.4839,alien3,TRUE,3,0.493438729,2,0,0.35374972,x,1.1353,0,2,2,2,1,0.282146791,0.385789481,0.35374972,0.549731917,FALSE,,,,,,,,,,,,,,,,,,,,,,,,,,,,,,,,,
GOSH_A9,2023-11-10_10h38.37.768,two_step_task_legacy,2022.2.4,Win32,60.09254252,32,learning,0,resources/alien3_norm.png,0.370417199,resources/alien4_norm.png,0.56697718,TRUE,TRUE,2,0.5194909,purple,x,0.9389,alien4,TRUE,3,0.850659864,2,0,0.56697718,m,1.2634,0,3,3,3,1,0.311035025,0.386027604,0.370417199,0.56697718,FALSE,,,,,,,,,,,,,,,,,,,,,,,,,,,,,,,,,
GOSH_A9,2023-11-10_10h38.37.768,two_step_task_legacy,2022.2.4,Win32,60.09254252,32,learning,0,resources/alien3_norm.png,0.3707712,resources/alien4_norm.png,0.553983958,TRUE,TRUE,2,0.445040962,purple,x,0.4611,alien3,TRUE,3,0.994939606,2,0,0.3707712,x,1.1219,0,4,4,4,1,0.330037275,0.406497431,0.3707712,0.553983958,FALSE,,,,,,,,,,,,,,,,,,,,,,,,,,,,,,,,,
GOSH_A9,2023-11-10_10h38.37.768,two_step_task_legacy,2022.2.4,Win32,60.09254252,32,learning,0,resources/alien1_norm.png,0.319697015,resources/alien2_norm.png,0.420924571,TRUE,TRUE,3,0.687988311,red,m,1.9597,alien1,TRUE,3,0.991514051,2,0,0.319697015,x,1.2255,0,5,5,5,1,0.319697015,0.420924571,0.411737843,0.550383913,FALSE,,,,,,,,,,,,,,,,,,,,,,,,,,,,,,,,,
GOSH_A9,2023-11-10_10h38.37.768,two_step_task_legacy,2022.2.4,Win32,60.09254252,32,learning,0,resources/alien2_norm.png,0.429259747,resources/alien1_norm.png,0.374534372,TRUE,TRUE,3,0.31037891,red,m,0.8108,alien2,TRUE,3,0.732140426,2,0,0.429259747,x,1.4885,0,6,6,6,1,0.374534372,0.429259747,0.40380265,0.532545331,TRUE,,,,,,,,,,,,,,,,,,,,,,,,,,,,,,,,,
GOSH_A9,2023-11-10_10h38.37.768,two_step_task_legacy,2022.2.4,Win32,60.09254252,32,learning,0,resources/alien4_norm.png,0.528660643,resources/alien3_norm.png,0.434730642,TRUE,TRUE,2,0.383629273,purple,x,0.6109,alien3,TRUE,3,0.57901851,2,0,0.434730642,m,1.0058,0,7,7,7,1,0.373347589,0.385603329,0.434730642,0.528660643,TRUE,,,,,,,,,,,,,,,,,,,,,,,,,,,,,,,,,
GOSH_A9,2023-11-10_10h38.37.768,two_step_task_legacy,2022.2.4,Win32,60.09254252,32,learning,1,resources/alien2_norm.png,0.425716221,resources/alien1_norm.png,0.337951362,TRUE,TRUE,3,0.829210297,red,x,0.4562,alien1,TRUE,3,0.492338567,2,0,0.337951362,m,1.7137,0,8,8,8,1,0.337951362,0.425716221,0.398281448,0.502939316,TRUE,,,,,,,,,,,,,,,,,,,,,,,,,,,,,,,,,
GOSH_A9,2023-11-10_10h38.37.768,two_step_task_legacy,2022.2.4,Win32,60.09254252,32,learning,0,resources/alien3_norm.png,0.380634322,resources/alien4_norm.png,0.511941223,TRUE,TRUE,2,0.4033216,purple,x,0.889,alien4,TRUE,3,0.561176609,2,0,0.511941223,m,2.0548,0,9,9,9,1,0.348751458,0.409492703,0.380634322,0.511941223,FALSE,,,,,,,,,,,,,,,,,,,,,,,,,,,,,,,,,
GOSH_A9,2023-11-10_10h38.37.768,two_step_task_legacy,2022.2.4,Win32,60.09254252,32,learning,0,resources/alien3_norm.png,0.356859485,resources/alien4_norm.png,0.461856458,TRUE,TRUE,2,0.659039051,purple,x,2.212,alien3,TRUE,3,0.702534864,2,0,0.356859485,x,0.7617,0,10,10,10,1,0.359100765,0.420449466,0.356859485,0.461856458,FALSE,,,,,,,,,,,,,,,,,,,,,,,,,,,,,,,,,
GOSH_A9,2023-11-10_10h38.37.768,two_step_task_legacy,2022.2.4,Win32,60.09254252,32,learning,1,resources/alien2_norm.png,0.433505728,resources/alien1_norm.png,0.334786622,TRUE,TRUE,3,0.818665599,red,x,0.7448,alien2,TRUE,2,0.234330219,3,1,0.433505728,x,1.054,0,11,11,11,1,0.334786622,0.433505728,0.332591039,0.457442013,TRUE,,,,,,,,,,,,,,,,,,,,,,,,,,,,,,,,,
GOSH_A9,2023-11-10_10h38.37.768,two_step_task_legacy,2022.2.4,Win32,60.09254252,32,learning,0,resources/alien3_norm.png,0.345881542,resources/alien4_norm.png,0.428850041,TRUE,TRUE,2,0.158099503,purple,x,0.6281,alien3,TRUE,3,0.624856418,3,0,0.345881542,x,0.8283,0,12,12,12,1,0.310197991,0.440948156,0.345881542,0.428850041,FALSE,,,,,,,,,,,,,,,,,,,,,,,,,,,,,,,,,
GOSH_A9,2023-11-10_10h38.37.768,two_step_task_legacy,2022.2.4,Win32,60.09254252,32,learning,1,resources/alien2_norm.png,0.447699877,resources/alien1_norm.png,0.336275699,TRUE,TRUE,3,0.872338225,red,x,0.6451,alien2,TRUE,3,0.986258476,3,0,0.447699877,x,1.1283,0,13,13,13,1,0.336275699,0.447699877,0.3560984,0.439803574,TRUE,,,,,,,,,,,,,,,,,,,,,,,,,,,,,,,,,
GOSH_A9,2023-11-10_10h38.37.768,two_step_task_legacy,2022.2.4,Win32,60.09254252,32,learning,0,resources/alien4_norm.png,0.445128952,resources/alien3_norm.png,0.377740833,TRUE,TRUE,2,0.145446542,purple,x,0.673,alien3,TRUE,2,0.061877112,4,1,0.377740833,m,0.9379,0,14,14,14,1,0.310955652,0.431966512,0.377740833,0.445128952,TRUE,,,,,,,,,,,,,,,,,,,,,,,,,,,,,,,,,
GOSH_A9,2023-11-10_10h38.37.768,two_step_task_legacy,2022.2.4,Win32,60.09254252,32,learning,0,resources/alien4_norm.png,0.419394809,resources/alien3_norm.png,0.386367482,TRUE,TRUE,2,0.214153899,purple,x,0.5396,alien3,TRUE,2,0.103251951,5,1,0.386367482,m,1.118,0,15,15,15,1,0.288460094,0.439469287,0.386367482,0.419394809,TRUE,,,,,,,,,,,,,,,,,,,,,,,,,,,,,,,,,
GOSH_A9,2023-11-10_10h38.37.768,two_step_task_legacy,2022.2.4,Win32,60.09254252,32,learning,0,resources/alien3_norm.png,0.389875525,resources/alien4_norm.png,0.429867389,TRUE,TRUE,2,0.639182515,purple,x,0.5727,alien3,TRUE,3,0.781597667,5,0,0.389875525,x,0.8377,0,16,16,16,1,0.314264702,0.40618889,0.389875525,0.429867389,FALSE,,,,,,,,,,,,,,,,,,,,,,,,,,,,,,,,,
GOSH_A9,2023-11-10_10h38.37.768,two_step_task_legacy,2022.2.4,Win32,60.09254252,32,learning,0,resources/alien3_norm.png,0.423447256,resources/alien4_norm.png,0.42195488,TRUE,TRUE,2,0.25218,purple,x,0.6063,alien3,TRUE,3,0.731982971,5,0,0.423447256,x,1.4283,0,17,17,17,1,0.329479215,0.436753725,0.423447256,0.42195488,FALSE,,,,,,,,,,,,,,,,,,,,,,,,,,,,,,,,,
GOSH_A9,2023-11-10_10h38.37.768,two_step_task_legacy,2022.2.4,Win32,60.09254252,32,learning,0,resources/alien3_norm.png,0.421696126,resources/alien4_norm.png,0.415809758,TRUE,TRUE,2,0.614043761,purple,x,0.5176,alien4,TRUE,2,0.126976493,6,1,0.415809758,m,1.0491,0,18,18,18,1,0.342162292,0.430858483,0.421696126,0.415809758,FALSE,,,,,,,,,,,,,,,,,,,,,,,,,,,,,,,,,
GOSH_A9,2023-11-10_10h38.37.768,two_step_task_legacy,2022.2.4,Win32,60.09254252,32,learning,0,resources/alien3_norm.png,0.423426482,resources/alien4_norm.png,0.360130556,TRUE,TRUE,2,0.463621353,purple,x,0.7502,alien4,TRUE,2,0.07218233,7,1,0.360130556,m,0.5793,0,19,19,19,1,0.340493369,0.429971496,0.423426482,0.360130556,FALSE,,,,,,,,,,,,,,,,,,,,,,,,,,,,,,,,,
GOSH_A9,2023-11-10_10h38.37.768,two_step_task_legacy,2022.2.4,Win32,60.09254252,32,learning,0,resources/alien3_norm.png,0.469317449,resources/alien4_norm.png,0.33758227,TRUE,TRUE,2,0.685441112,purple,x,0.5721,alien4,TRUE,3,0.718750598,7,0,0.33758227,m,0.4797,0,20,20,20,1,0.372574772,0.488195359,0.469317449,0.33758227,FALSE,,,,,,,,,,,,,,,,,,,,,,,,,,,,,,,,,
GOSH_A9,2023-11-10_10h38.37.768,two_step_task_legacy,2022.2.4,Win32,60.09254252,32,learning,1,resources/alien2_norm.png,0.469414634,resources/alien1_norm.png,0.362843116,TRUE,TRUE,3,0.901502126,red,x,0.6994,alien2,TRUE,3,0.777249169,7,0,0.469414634,x,1.2263,0,21,21,21,1,0.362843116,0.469414634,0.438740885,0.293125872,TRUE,,,,,,,,,,,,,,,,,,,,,,,,,,,,,,,,,
GOSH_A9,2023-11-10_10h38.37.768,two_step_task_legacy,2022.2.4,Win32,60.09254252,32,learning,1,resources/alien2_norm.png,0.473626381,resources/alien1_norm.png,0.373683349,TRUE,TRUE,3,0.989402159,red,x,0.5336,alien1,TRUE,2,0.025761633,8,1,0.373683349,m,1.6669,0,22,22,22,1,0.373683349,0.473626381,0.425207524,0.298589211,TRUE,,,,,,,,,,,,,,,,,,,,,,,,,,,,,,,,,
GOSH_A9,2023-11-10_10h38.37.768,two_step_task_legacy,2022.2.4,Win32,60.09254252,32,learning,1,resources/alien1_norm.png,0.402849975,resources/alien2_norm.png,0.519983858,TRUE,TRUE,3,0.962029583,red,x,0.5879,alien1,TRUE,2,0.23547337,9,1,0.402849975,x,1.0162,0,23,23,23,1,0.402849975,0.519983858,0.452541111,0.32710624,FALSE,,,,,,,,,,,,,,,,,,,,,,,,,,,,,,,,,
GOSH_A9,2023-11-10_10h38.37.768,two_step_task_legacy,2022.2.4,Win32,60.09254252,32,learning,0,resources/alien4_norm.png,0.324564679,resources/alien3_norm.png,0.38285773,TRUE,TRUE,2,0.343763062,purple,x,0.3794,alien4,TRUE,3,0.518882618,9,0,0.324564679,x,1.2203,0,24,24,24,1,0.400026357,0.508985053,0.38285773,0.324564679,TRUE,,,,,,,,,,,,,,,,,,,,,,,,,,,,,,,,,
GOSH_A9,2023-11-10_10h38.37.768,two_step_task_legacy,2022.2.4,Win32,60.09254252,32,learning,1,resources/alien2_norm.png,0.486523154,resources/alien1_norm.png,0.402023678,TRUE,TRUE,3,0.974509495,red,x,0.3267,alien1,TRUE,2,0.097962546,10,1,0.402023678,m,1.4039,0,25,25,25,1,0.402023678,0.486523154,0.375587977,0.319972093,TRUE,,,,,,,,,,,,,,,,,,,,,,,,,,,,,,,,,
GOSH_A9,2023-11-10_10h38.37.768,two_step_task_legacy,2022.2.4,Win32,60.09254252,32,learning,0,resources/alien4_norm.png,0.297210029,resources/alien3_norm.png,0.353910913,TRUE,TRUE,2,0.430036611,purple,x,0.8462,alien3,TRUE,3,0.683923107,10,0,0.353910913,m,0.8867,0,26,26,26,1,0.420450172,0.530270136,0.353910913,0.297210029,TRUE,,,,,,,,,,,,,,,,,,,,,,,,,,,,,,,,,
GOSH_A9,2023-11-10_10h38.37.768,two_step_task_legacy,2022.2.4,Win32,60.09254252,32,learning,0,resources/alien1_norm.png,0.405422621,resources/alien2_norm.png,0.527962437,TRUE,TRUE,3,0.387215451,red,m,0.4673,alien1,TRUE,3,0.993783378,10,0,0.405422621,x,1.0143,0,27,27,27,1,0.405422621,0.527962437,0.369124849,0.253963994,FALSE,,,,,,,,,,,,,,,,,,,,,,,,,,,,,,,,,
GOSH_A9,2023-11-10_10h38.37.768,two_step_task_legacy,2022.2.4,Win32,60.09254252,32,learning,0,resources/alien1_norm.png,0.399682699,resources/alien2_norm.png,0.51696249,TRUE,TRUE,3,0.652780083,red,m,0.5268,alien1,TRUE,2,0.28896261,11,1,0.399682699,x,0.8579,0,28,28,28,1,0.399682699,0.51696249,0.362253929,0.269385642,FALSE,,,,,,,,,,,,,,,,,,,,,,,,,,,,,,,,,
GOSH_A9,2023-11-10_10h38.37.768,two_step_task_legacy,2022.2.4,Win32,60.09254252,32,learning,0,resources/alien2_norm.png,0.521911456,resources/alien1_norm.png,0.373511879,TRUE,TRUE,3,0.128782488,red,m,0.3374,alien1,TRUE,3,0.524890773,11,0,0.373511879,m,0.7021,0,29,29,29,1,0.373511879,0.521911456,0.368211467,0.261193688,TRUE,,,,,,,,,,,,,,,,,,,,,,,,,,,,,,,,,
GOSH_A9,2023-11-10_10h38.37.768,two_step_task_legacy,2022.2.4,Win32,60.09254252,32,learning,0,resources/alien1_norm.png,0.369088209,resources/alien2_norm.png,0.529599042,TRUE,TRUE,3,0.159427709,red,m,0.3097,alien1,TRUE,3,0.896435892,11,0,0.369088209,x,2.5341,0,30,30,30,1,0.369088209,0.529599042,0.353327525,0.264489197,FALSE,,,,,,,,,,,,,,,,,,,,,,,,,,,,,,,,,
GOSH_A9,2023-11-10_10h38.37.768,two_step_task_legacy,2022.2.4,Win32,60.09254252,32,learning,0,resources/alien1_norm.png,0.393762256,resources/alien2_norm.png,0.510609834,TRUE,TRUE,3,0.286850157,red,m,0.8545,alien2,TRUE,2,0.357971784,12,1,0.510609834,m,0.5749,0,31,31,31,1,0.393762256,0.510609834,0.368425487,0.280919229,FALSE,,,,,,,,,,,,,,,,,,,,,,,,,,,,,,,,,
GOSH_A9,2023-11-10_10h38.37.768,two_step_task_legacy,2022.2.4,Win32,60.09254252,32,learning,1,resources/alien4_norm.png,0.266638039,resources/alien3_norm.png,0.358105587,TRUE,TRUE,2,0.958669651,purple,m,0.3333,alien3,TRUE,3,0.46624141,12,0,0.358105587,m,1.3394,0,32,32,32,1,0.373790081,0.507604702,0.358105587,0.266638039,TRUE,,,,,,,,,,,,,,,,,,,,,,,,,,,,,,,,,
GOSH_A9,2023-11-10_10h38.37.768,two_step_task_legacy,2022.2.4,Win32,60.09254252,32,learning,1,resources/alien3_norm.png,0.337718374,resources/alien4_norm.png,0.275964805,TRUE,TRUE,2,0.812953021,purple,m,1.2903,alien4,TRUE,3,0.37690017,12,0,0.275964805,m,1.5796,0,33,33,33,1,0.350236748,0.500092553,0.337718374,0.275964805,FALSE,,,,,,,,,,,,,,,,,,,,,,,,,,,,,,,,,
GOSH_A9,2023-11-10_10h38.37.768,two_step_task_legacy,2022.2.4,Win32,60.09254252,32,learning,0,resources/alien3_norm.png,0.327684966,resources/alien4_norm.png,0.290796063,TRUE,TRUE,2,0.198708476,purple,x,0.3334,alien3,TRUE,3,0.678029656,12,0,0.327684966,x,1.2091,0,34,34,34,1,0.388262412,0.518183331,0.327684966,0.290796063,FALSE,,,,,,,,,,,,,,,,,,,,,,,,,,,,,,,,,
GOSH_A9,2023-11-10_10h38.37.768,two_step_task_legacy,2022.2.4,Win32,60.09254252,32,learning,0,resources/alien3_norm.png,0.32270523,resources/alien4_norm.png,0.317792719,TRUE,TRUE,2,0.124350965,purple,x,0.2782,alien4,TRUE,3,0.451381297,12,0,0.317792719,m,0.9393,0,35,35,35,1,0.40428015,0.472961766,0.32270523,0.317792719,FALSE,,,,,,,,,,,,,,,,,,,,,,,,,,,,,,,,,
GOSH_A9,2023-11-10_10h38.37.768,two_step_task_legacy,2022.2.4,Win32,60.09254252,32,learning,1,resources/alien4_norm.png,0.342618194,resources/alien3_norm.png,0.298331474,TRUE,TRUE,2,0.990547367,purple,m,0.3832,alien3,TRUE,3,0.92015438,12,0,0.298331474,m,1.5354,0,36,36,36,1,0.419939613,0.466723822,0.298331474,0.342618194,TRUE,,,,,,,,,,,,,,,,,,,,,,,,,,,,,,,,,
GOSH_A9,2023-11-10_10h38.37.768,two_step_task_legacy,2022.2.4,Win32,60.09254252,32,learning,0,resources/alien2_norm.png,0.45141104,resources/alien1_norm.png,0.444492901,TRUE,TRUE,3,0.126859571,red,m,0.3559,alien1,TRUE,3,0.890773915,12,0,0.444492901,m,1.0225,0,37,37,37,1,0.444492901,0.45141104,0.326299774,0.343990348,TRUE,,,,,,,,,,,,,,,,,,,,,,,,,,,,,,,,,
GOSH_A9,2023-11-10_10h38.37.768,two_step_task_legacy,2022.2.4,Win32,60.09254252,32,learning,0,resources/alien1_norm.png,0.455119364,resources/alien2_norm.png,0.436675205,TRUE,TRUE,3,0.392271355,red,m,0.3105,alien2,TRUE,3,0.559433467,12,0,0.436675205,m,2.4244,0,38,38,38,1,0.455119364,0.436675205,0.376848747,0.345560128,FALSE,,,,,,,,,,,,,,,,,,,,,,,,,,,,,,,,,
GOSH_A9,2023-11-10_10h38.37.768,two_step_task_legacy,2022.2.4,Win32,60.09254252,32,learning,0,resources/alien1_norm.png,0.473916732,resources/alien2_norm.png,0.398768533,TRUE,TRUE,3,0.300986844,red,m,0.4011,alien1,TRUE,3,0.6714844,12,0,0.473916732,x,0.5677,0,39,39,39,1,0.473916732,0.398768533,0.335948756,0.346374291,FALSE,,,,,,,,,,,,,,,,,,,,,,,,,,,,,,,,,
GOSH_A9,2023-11-10_10h38.37.768,two_step_task_legacy,2022.2.4,Win32,60.09254252,32,learning,0,resources/alien4_norm.png,0.372665099,resources/alien3_norm.png,0.326012081,TRUE,TRUE,2,0.411175199,purple,x,0.6228,alien3,TRUE,3,0.758482218,12,0,0.326012081,m,0.4437,0,40,40,40,1,0.453608657,0.38513003,0.326012081,0.372665099,TRUE,,,,,,,,,,,,,,,,,,,,,,,,,,,,,,,,,
GOSH_A9,2023-11-10_10h38.37.768,two_step_task_legacy,2022.2.4,Win32,60.09254252,32,learning,0,resources/alien4_norm.png,0.335910067,resources/alien3_norm.png,0.334182437,TRUE,TRUE,2,0.268354647,purple,x,0.9026,alien4,TRUE,3,0.492275831,12,0,0.335910067,x,0.8845,0,41,41,41,1,0.489633997,0.375083918,0.334182437,0.335910067,TRUE,,,,,,,,,,,,,,,,,,,,,,,,,,,,,,,,,
GOSH_A9,2023-11-10_10h38.37.768,two_step_task_legacy,2022.2.4,Win32,60.09254252,32,learning,0,resources/alien2_norm.png,0.360235648,resources/alien1_norm.png,0.474630434,TRUE,TRUE,3,0.350014494,red,m,0.8109,alien1,TRUE,2,0.149208666,13,1,0.474630434,m,1.0535,0,42,42,42,1,0.474630434,0.360235648,0.367358515,0.390560607,TRUE,,,,,,,,,,,,,,,,,,,,,,,,,,,,,,,,,
GOSH_A9,2023-11-10_10h38.37.768,two_step_task_legacy,2022.2.4,Win32,60.09254252,32,learning,1,resources/alien4_norm.png,0.377396931,resources/alien3_norm.png,0.373864787,TRUE,TRUE,2,0.880188539,purple,m,0.3544,alien4,TRUE,3,0.85504724,13,0,0.377396931,x,1.1342,0,43,43,43,1,0.42951809,0.378313685,0.373864787,0.377396931,TRUE,,,,,,,,,,,,,,,,,,,,,,,,,,,,,,,,,
GOSH_A9,2023-11-10_10h38.37.768,two_step_task_legacy,2022.2.4,Win32,60.09254252,32,learning,0,resources/alien2_norm.png,0.375580743,resources/alien1_norm.png,0.41423471,TRUE,TRUE,3,0.086108348,red,m,0.3295,alien1,TRUE,3,0.702168524,13,0,0.41423471,m,0.8943,0,44,44,44,1,0.41423471,0.375580743,0.366064191,0.332046545,TRUE,,,,,,,,,,,,,,,,,,,,,,,,,,,,,,,,,
GOSH_A9,2023-11-10_10h38.37.768,two_step_task_legacy,2022.2.4,Win32,60.09254252,32,learning,0,resources/alien2_norm.png,0.380099227,resources/alien1_norm.png,0.426559955,TRUE,TRUE,3,0.170252032,red,m,0.6281,alien2,TRUE,3,0.803623955,13,0,0.380099227,x,0.7396,0,45,45,45,1,0.426559955,0.380099227,0.367658769,0.330900517,TRUE,,,,,,,,,,,,,,,,,,,,,,,,,,,,,,,,,
GOSH_A9,2023-11-10_10h38.37.768,two_step_task_legacy,2022.2.4,Win32,60.09254252,32,learning,0,resources/alien2_norm.png,0.393618887,resources/alien1_norm.png,0.433874659,TRUE,TRUE,3,0.069531556,red,m,0.3107,alien1,TRUE,2,0.093700981,14,1,0.433874659,m,0.7682,0,46,46,46,1,0.433874659,0.393618887,0.395073602,0.338616562,TRUE,,,,,,,,,,,,,,,,,,,,,,,,,,,,,,,,,
GOSH_A9,2023-11-10_10h38.37.768,two_step_task_legacy,2022.2.4,Win32,60.09254252,32,learning,0,resources/alien2_norm.png,0.430653864,resources/alien1_norm.png,0.450295057,TRUE,TRUE,3,0.25726584,red,m,0.6168,alien1,TRUE,2,0.040252729,15,1,0.450295057,m,0.6369,0,47,47,47,1,0.450295057,0.430653864,0.374609818,0.334729338,TRUE,,,,,,,,,,,,,,,,,,,,,,,,,,,,,,,,,
GOSH_A9,2023-11-10_10h38.37.768,two_step_task_legacy,2022.2.4,Win32,60.09254252,32,learning,0,resources/alien2_norm.png,0.418768244,resources/alien1_norm.png,0.418756289,TRUE,TRUE,3,0.53704545,red,m,0.2977,alien1,TRUE,3,0.906114506,15,0,0.418756289,m,0.5778,0,48,48,48,1,0.418756289,0.418768244,0.371436141,0.305376419,TRUE,,,,,,,,,,,,,,,,,,,,,,,,,,,,,,,,,
GOSH_A9,2023-11-10_10h38.37.768,two_step_task_legacy,2022.2.4,Win32,60.09254252,32,learning,1,resources/alien4_norm.png,0.277158008,resources/alien3_norm.png,0.378685217,TRUE,TRUE,2,0.978013942,purple,m,0.2517,alien4,TRUE,3,0.590080683,15,0,0.277158008,x,1.1043,0,49,49,49,1,0.429931164,0.416026779,0.378685217,0.277158008,TRUE,,,,,,,,,,,,,,,,,,,,,,,,,,,,,,,,,
GOSH_A9,2023-11-10_10h38.37.768,two_step_task_legacy,2022.2.4,Win32,60.09254252,32,learning,1,resources/alien3_norm.png,0.404191826,resources/alien4_norm.png,0.259920018,TRUE,TRUE,2,0.91381854,purple,m,0.8504,alien3,TRUE,2,0.018078384,16,1,0.404191826,x,1.6114,0,50,50,50,1,0.423189948,0.403669602,0.404191826,0.259920018,FALSE,,,,,,,,,,,,,,,,,,,,,,,,,,,,,,,,,
GOSH_A9,2023-11-10_10h38.37.768,two_step_task_legacy,2022.2.4,Win32,60.09254252,32,learning,0,resources/alien1_norm.png,0.46566155,resources/alien2_norm.png,0.388479588,TRUE,TRUE,3,0.327841728,red,m,0.4447,alien1,TRUE,2,0.000355642,17,1,0.46566155,x,0.6538,0,51,51,51,1,0.46566155,0.388479588,0.386712818,0.262864975,FALSE,,,,,,,,,,,,,,,,,,,,,,,,,,,,,,,,,
GOSH_A9,2023-11-10_10h38.37.768,two_step_task_legacy,2022.2.4,Win32,60.09254252,32,learning,0,resources/alien1_norm.png,0.479911798,resources/alien2_norm.png,0.414122928,TRUE,TRUE,3,0.163417515,red,m,0.8086,alien2,TRUE,3,0.767159215,17,0,0.414122928,m,0.5928,0,52,52,52,1,0.479911798,0.414122928,0.391960252,0.285583615,FALSE,,,,,,,,,,,,,,,,,,,,,,,,,,,,,,,,,
GOSH_A9,2023-11-10_10h38.37.768,two_step_task_legacy,2022.2.4,Win32,60.09254252,32,learning,1,resources/alien4_norm.png,0.299540972,resources/alien3_norm.png,0.399745987,TRUE,TRUE,2,0.74375526,purple,m,0.2872,alien3,TRUE,3,0.950212066,17,0,0.399745987,m,1.055,0,53,53,53,1,0.501808655,0.4061242,0.399745987,0.299540972,TRUE,,,,,,,,,,,,,,,,,,,,,,,,,,,,,,,,,
GOSH_A9,2023-11-10_10h38.37.768,two_step_task_legacy,2022.2.4,Win32,60.09254252,32,learning,0,resources/alien1_norm.png,0.527708274,resources/alien2_norm.png,0.359177564,TRUE,TRUE,3,0.02659682,red,m,0.5314,alien1,TRUE,2,0.507717306,18,1,0.527708274,x,0.7866,0,54,54,54,1,0.527708274,0.359177564,0.380062342,0.276023362,FALSE,,,,,,,,,,,,,,,,,,,,,,,,,,,,,,,,,
GOSH_A9,2023-11-10_10h38.37.768,two_step_task_legacy,2022.2.4,Win32,60.09254252,32,learning,1,resources/alien4_norm.png,0.283917662,resources/alien3_norm.png,0.369346775,TRUE,TRUE,2,0.843923851,purple,m,0.7274,alien3,TRUE,2,0.047844211,19,1,0.369346775,m,0.6938,0,55,55,55,1,0.467096746,0.335192551,0.369346775,0.283917662,TRUE,,,,,,,,,,,,,,,,,,,,,,,,,,,,,,,,,
GOSH_A9,2023-11-10_10h38.37.768,two_step_task_legacy,2022.2.4,Win32,60.09254252,32,learning,0,resources/alien1_norm.png,0.474303155,resources/alien2_norm.png,0.326440982,TRUE,TRUE,3,0.662713944,red,m,0.4953,alien1,TRUE,3,0.677761797,19,0,0.474303155,x,0.6201,0,56,56,56,1,0.474303155,0.326440982,0.343447378,0.32981414,FALSE,,,,,,,,,,,,,,,,,,,,,,,,,,,,,,,,,
GOSH_A9,2023-11-10_10h38.37.768,two_step_task_legacy,2022.2.4,Win32,60.09254252,32,learning,1,resources/alien4_norm.png,0.321408807,resources/alien3_norm.png,0.366063729,TRUE,TRUE,2,0.935719361,purple,m,0.3208,alien3,TRUE,2,0.037165558,20,1,0.366063729,m,0.9956,0,57,57,57,1,0.494860486,0.328796997,0.366063729,0.321408807,TRUE,,,,,,,,,,,,,,,,,,,,,,,,,,,,,,,,,
GOSH_A9,2023-11-10_10h38.37.768,two_step_task_legacy,2022.2.4,Win32,60.09254252,32,learning,0,resources/alien1_norm.png,0.50196401,resources/alien2_norm.png,0.330964254,TRUE,TRUE,3,0.332815611,red,m,0.5039,alien1,TRUE,3,0.846849265,20,0,0.50196401,x,0.6826,0,58,58,58,1,0.50196401,0.330964254,0.361259173,0.358143684,FALSE,,,,,,,,,,,,,,,,,,,,,,,,,,,,,,,,,
GOSH_A9,2023-11-10_10h38.37.768,two_step_task_legacy,2022.2.4,Win32,60.09254252,32,learning,0,resources/alien1_norm.png,0.482347299,resources/alien2_norm.png,0.323248675,TRUE,TRUE,3,0.316131337,red,m,0.3147,alien1,TRUE,2,0.041043104,21,1,0.482347299,x,0.7426,0,59,59,59,1,0.482347299,0.323248675,0.387683492,0.363990185,FALSE,,,,,,,,,,,,,,,,,,,,,,,,,,,,,,,,,
GOSH_A9,2023-11-10_10h38.37.768,two_step_task_legacy,2022.2.4,Win32,60.09254252,32,learning,0,resources/alien2_norm.png,0.326370924,resources/alien1_norm.png,0.494040163,TRUE,TRUE,3,0.382807283,red,m,0.2998,alien1,TRUE,2,0.02880173,22,1,0.494040163,m,0.6949,0,60,60,60,1,0.494040163,0.326370924,0.409203884,0.327016223,TRUE,,,,,,,,,,,,,,,,,,,,,,,,,,,,,,,,,
GOSH_A9,2023-11-10_10h38.37.768,two_step_task_legacy,2022.2.4,Win32,60.09254252,32,learning,0,resources/alien2_norm.png,0.31229175,resources/alien1_norm.png,0.49145617,TRUE,TRUE,3,0.483050718,red,m,0.7051,alien1,TRUE,2,0.279273895,23,1,0.49145617,m,0.6208,0,61,61,61,1,0.49145617,0.31229175,0.431822039,0.324176298,TRUE,,,,,,,,,,,,,,,,,,,,,,,,,,,,,,,,,
GOSH_A9,2023-11-10_10h38.37.768,two_step_task_legacy,2022.2.4,Win32,60.09254252,32,learning,1,resources/alien4_norm.png,0.277711474,resources/alien3_norm.png,0.446935292,TRUE,TRUE,2,0.706463758,purple,m,0.3542,alien3,TRUE,3,0.680852218,23,0,0.446935292,m,0.6834,0,62,62,62,1,0.511059825,0.357426084,0.446935292,0.277711474,TRUE,,,,,,,,,,,,,,,,,,,,,,,,,,,,,,,,,
GOSH_A9,2023-11-10_10h38.37.768,two_step_task_legacy,2022.2.4,Win32,60.09254252,32,learning,1,resources/alien4_norm.png,0.255687654,resources/alien3_norm.png,0.438854963,TRUE,TRUE,2,0.830557561,purple,m,0.2803,alien3,TRUE,2,0.15772728,24,1,0.438854963,m,0.7059,0,63,63,63,1,0.494441472,0.355296369,0.438854963,0.255687654,TRUE,,,,,,,,,,,,,,,,,,,,,,,,,,,,,,,,,
GOSH_A9,2023-11-10_10h38.37.768,two_step_task_legacy,2022.2.4,Win32,60.09254252,32,learning,0,resources/alien1_norm.png,0.501267645,resources/alien2_norm.png,0.315888865,TRUE,TRUE,3,0.022314307,red,m,0.3335,alien1,TRUE,2,0.10114337,25,1,0.501267645,x,0.7052,0,64,64,64,1,0.501267645,0.315888865,0.43066716,0.256335775,FALSE,,,,,,,,,,,,,,,,,,,,,,,,,,,,,,,,,
GOSH_A9,2023-11-10_10h38.37.768,two_step_task_legacy,2022.2.4,Win32,60.09254252,32,learning,0,resources/alien1_norm.png,0.536221092,resources/alien2_norm.png,0.322265245,TRUE,TRUE,3,0.068231804,red,m,0.5674,alien1,TRUE,2,0.18110444,26,1,0.536221092,x,0.56,0,65,65,65,1,0.536221092,0.322265245,0.411973809,0.252225673,FALSE,,,,,,,,,,,,,,,,,,,,,,,,,,,,,,,,,
GOSH_A9,2023-11-10_10h38.37.768,two_step_task_legacy,2022.2.4,Win32,60.09254252,32,learning,0,resources/alien1_norm.png,0.481776625,resources/alien2_norm.png,0.29380361,TRUE,TRUE,3,0.271478114,red,m,0.3209,alien1,TRUE,2,0.156055844,27,1,0.481776625,x,0.4911,0,66,66,66,1,0.481776625,0.29380361,0.400940636,0.314647835,FALSE,,,,,,,,,,,,,,,,,,,,,,,,,,,,,,,,,
GOSH_A9,2023-11-10_10h38.37.768,two_step_task_legacy,2022.2.4,Win32,60.09254252,32,learning,0,resources/alien2_norm.png,0.329519782,resources/alien1_norm.png,0.488125242,TRUE,TRUE,3,0.327282809,red,m,0.5671,alien1,TRUE,3,0.8564988,27,0,0.488125242,m,0.6543,0,67,67,67,1,0.488125242,0.329519782,0.414957261,0.315169276,TRUE,,,,,,,,,,,,,,,,,,,,,,,,,,,,,,,,,
GOSH_A9,2023-11-10_10h38.37.768,two_step_task_legacy,2022.2.4,Win32,60.09254252,32,learning,0,resources/alien2_norm.png,0.300885739,resources/alien1_norm.png,0.541427607,TRUE,TRUE,3,0.660678164,red,m,0.2561,alien1,TRUE,2,0.500336164,28,1,0.541427607,m,0.5758,0,68,68,68,1,0.541427607,0.300885739,0.44505351,0.330896545,TRUE,,,,,,,,,,,,,,,,,,,,,,,,,,,,,,,,,
GOSH_A9,2023-11-10_10h38.37.768,two_step_task_legacy,2022.2.4,Win32,60.09254252,32,learning,0,resources/alien1_norm.png,0.533882143,resources/alien2_norm.png,0.290887465,TRUE,TRUE,3,0.105923914,red,m,0.3172,alien1,TRUE,3,0.902738391,28,0,0.533882143,x,0.8613,0,69,69,69,1,0.533882143,0.290887465,0.449474267,0.354145584,FALSE,,,,,,,,,,,,,,,,,,,,,,,,,,,,,,,,,
GOSH_A9,2023-11-10_10h38.37.768,two_step_task_legacy,2022.2.4,Win32,60.09254252,32,learning,0,resources/alien2_norm.png,0.302664213,resources/alien1_norm.png,0.559255734,TRUE,TRUE,3,0.313470205,red,m,0.2667,alien1,TRUE,3,0.599789164,28,0,0.559255734,m,0.6171,0,70,70,70,1,0.559255734,0.302664213,0.456770851,0.350719962,TRUE,,,,,,,,,,,,,,,,,,,,,,,,,,,,,,,,,
GOSH_A9,2023-11-10_10h38.37.768,two_step_task_legacy,2022.2.4,Win32,60.09254252,32,learning,0,resources/alien2_norm.png,0.312228833,resources/alien1_norm.png,0.591020595,TRUE,TRUE,3,0.345684477,red,m,0.3068,alien1,TRUE,2,0.399871308,29,1,0.591020595,m,0.7078,0,71,71,71,1,0.591020595,0.312228833,0.436127673,0.33450298,TRUE,,,,,,,,,,,,,,,,,,,,,,,,,,,,,,,,,
GOSH_A9,2023-11-10_10h38.37.768,two_step_task_legacy,2022.2.4,Win32,60.09254252,32,learning,0,resources/alien2_norm.png,0.287034498,resources/alien1_norm.png,0.594700632,TRUE,TRUE,3,0.389834329,red,m,0.5606,alien1,TRUE,2,0.434678008,30,1,0.594700632,m,0.5833,0,72,72,72,1,0.594700632,0.287034498,0.448742333,0.387594367,TRUE,,,,,,,,,,,,,,,,,,,,,,,,,,,,,,,,,
GOSH_A9,2023-11-10_10h38.37.768,two_step_task_legacy,2022.2.4,Win32,60.09254252,32,learning,1,resources/alien4_norm.png,0.365147156,resources/alien3_norm.png,0.45204078,TRUE,TRUE,2,0.909975039,purple,m,0.2548,alien3,TRUE,3,0.845012829,30,0,0.45204078,m,0.8925,0,73,73,73,1,0.574048882,0.273630571,0.45204078,0.365147156,TRUE,,,,,,,,,,,,,,,,,,,,,,,,,,,,,,,,,
GOSH_A9,2023-11-10_10h38.37.768,two_step_task_legacy,2022.2.4,Win32,60.09254252,32,learning,0,resources/alien2_norm.png,0.290909549,resources/alien1_norm.png,0.552605568,TRUE,TRUE,3,0.031127002,red,m,0.4572,alien1,TRUE,2,0.503513738,31,1,0.552605568,m,0.6699,0,74,74,74,1,0.552605568,0.290909549,0.449524946,0.353912716,TRUE,,,,,,,,,,,,,,,,,,,,,,,,,,,,,,,,,
GOSH_A9,2023-11-10_10h38.37.768,two_step_task_legacy,2022.2.4,Win32,60.09254252,32,learning,0,resources/alien2_norm.png,0.314621574,resources/alien1_norm.png,0.550607225,TRUE,TRUE,3,0.173012575,red,m,0.289,alien1,TRUE,3,0.779609849,31,0,0.550607225,m,0.6344,0,75,75,75,1,0.550607225,0.314621574,0.432600501,0.34362545,TRUE,,,,,,,,,,,,,,,,,,,,,,,,,,,,,,,,,
GOSH_A9,2023-11-10_10h38.37.768,two_step_task_legacy,2022.2.4,Win32,60.09254252,32,learning,0,resources/alien2_norm.png,0.300092266,resources/alien1_norm.png,0.612764323,TRUE,TRUE,3,0.549935985,red,m,0.625,alien1,TRUE,2,0.47930839,32,1,0.612764323,m,0.6016,0,76,76,76,1,0.612764323,0.300092266,0.490582508,0.398436323,TRUE,,,,,,,,,,,,,,,,,,,,,,,,,,,,,,,,,
GOSH_A9,2023-11-10_10h38.37.768,two_step_task_legacy,2022.2.4,Win32,60.09254252,32,learning,0,resources/alien1_norm.png,0.587251873,resources/alien2_norm.png,0.278549358,TRUE,TRUE,3,0.120836366,red,m,0.2813,alien1,TRUE,2,0.029405164,33,1,0.587251873,x,0.6452,0,77,77,77,1,0.587251873,0.278549358,0.492353439,0.398407271,FALSE,,,,,,,,,,,,,,,,,,,,,,,,,,,,,,,,,
GOSH_A9,2023-11-10_10h38.37.768,two_step_task_legacy,2022.2.4,Win32,60.09254252,32,learning,0,resources/alien2_norm.png,0.318845118,resources/alien1_norm.png,0.557449326,TRUE,TRUE,3,0.662280403,red,m,0.2891,alien1,TRUE,2,0.218208385,34,1,0.557449326,m,0.618,0,78,78,78,1,0.557449326,0.318845118,0.541074618,0.399018819,TRUE,,,,,,,,,,,,,,,,,,,,,,,,,,,,,,,,,
GOSH_A9,2023-11-10_10h38.37.768,two_step_task_legacy,2022.2.4,Win32,60.09254252,32,learning,0,resources/alien2_norm.png,0.312851037,resources/alien1_norm.png,0.53420459,TRUE,TRUE,3,0.028813195,red,m,0.2161,alien1,TRUE,3,0.98813293,34,0,0.53420459,m,0.6357,0,79,79,79,1,0.53420459,0.312851037,0.557363459,0.416277847,TRUE,,,,,,,,,,,,,,,,,,,,,,,,,,,,,,,,,
GOSH_A9,2023-11-10_10h38.37.768,two_step_task_legacy,2022.2.4,Win32,60.09254252,32,learning,0,resources/alien1_norm.png,0.511426408,resources/alien2_norm.png,0.297986444,TRUE,TRUE,3,0.197666977,red,m,0.2533,alien1,TRUE,2,0.038795564,35,1,0.511426408,x,0.6495,0,80,80,80,1,0.511426408,0.297986444,0.526107178,0.407522818,FALSE,,,,,,,,,,,,,,,,,,,,,,,,,,,,,,,,,
GOSH_A9,2023-11-10_10h38.37.768,two_step_task_legacy,2022.2.4,Win32,60.09254252,32,learning,0,resources/alien1_norm.png,0.544471121,resources/alien2_norm.png,0.274865796,TRUE,TRUE,3,0.410743633,red,m,0.4486,alien1,TRUE,2,0.307771108,36,1,0.544471121,x,0.551,0,81,81,81,1,0.544471121,0.274865796,0.527480151,0.407521571,FALSE,,,,,,,,,,,,,,,,,,,,,,,,,,,,,,,,,
GOSH_A9,2023-11-10_10h38.37.768,two_step_task_legacy,2022.2.4,Win32,60.09254252,32,learning,0,resources/alien2_norm.png,0.291138489,resources/alien1_norm.png,0.519319193,TRUE,TRUE,3,0.427113091,red,m,0.6342,alien1,TRUE,3,0.954384547,36,0,0.519319193,m,0.6291,0,82,82,82,1,0.519319193,0.291138489,0.551089596,0.401095167,TRUE,,,,,,,,,,,,,,,,,,,,,,,,,,,,,,,,,
GOSH_A9,2023-11-10_10h38.37.768,two_step_task_legacy,2022.2.4,Win32,60.09254252,32,learning,1,resources/alien3_norm.png,0.524023759,resources/alien4_norm.png,0.392918668,TRUE,TRUE,2,0.8577123,purple,m,0.2487,alien3,TRUE,3,0.57761821,36,0,0.524023759,x,0.8557,0,83,83,83,1,0.517664442,0.274829592,0.524023759,0.392918668,FALSE,,,,,,,,,,,,,,,,,,,,,,,,,,,,,,,,,
GOSH_A9,2023-11-10_10h38.37.768,two_step_task_legacy,2022.2.4,Win32,60.09254252,32,learning,0,resources/alien2_norm.png,0.266925426,resources/alien1_norm.png,0.50709655,TRUE,TRUE,3,0.502942655,red,m,0.6543,alien1,TRUE,2,0.122534877,37,1,0.50709655,m,0.6503,0,84,84,84,1,0.50709655,0.266925426,0.554344939,0.38112781,TRUE,,,,,,,,,,,,,,,,,,,,,,,,,,,,,,,,,
GOSH_A9,2023-11-10_10h38.37.768,two_step_task_legacy,2022.2.4,Win32,60.09254252,32,learning,0,resources/alien2_norm.png,0.274678686,resources/alien1_norm.png,0.482095029,TRUE,TRUE,3,0.129412501,red,m,0.2684,alien1,TRUE,3,0.699887461,37,0,0.482095029,m,0.527,0,85,85,85,1,0.482095029,0.274678686,0.561296543,0.395878674,TRUE,,,,,,,,,,,,,,,,,,,,,,,,,,,,,,,,,
GOSH_A9,2023-11-10_10h38.37.768,two_step_task_legacy,2022.2.4,Win32,60.09254252,32,learning,1,resources/alien3_norm.png,0.55285745,resources/alien4_norm.png,0.340142532,TRUE,TRUE,2,0.9609416,purple,m,0.2895,alien3,TRUE,3,0.560093139,37,0,0.55285745,x,0.6781,0,86,86,86,1,0.431502757,0.331137536,0.55285745,0.340142532,FALSE,,,,,,,,,,,,,,,,,,,,,,,,,,,,,,,,,
GOSH_A9,2023-11-10_10h38.37.768,two_step_task_legacy,2022.2.4,Win32,60.09254252,32,learning,1,resources/alien3_norm.png,0.558768815,resources/alien4_norm.png,0.349462751,TRUE,TRUE,2,0.857281045,purple,m,0.4939,alien4,TRUE,3,0.759697388,37,0,0.349462751,m,0.9876,0,87,87,87,1,0.425694082,0.320477847,0.558768815,0.349462751,FALSE,,,,,,,,,,,,,,,,,,,,,,,,,,,,,,,,,
GOSH_A9,2023-11-10_10h38.37.768,two_step_task_legacy,2022.2.4,Win32,60.09254252,32,learning,0,resources/alien1_norm.png,0.423235387,resources/alien2_norm.png,0.319443506,TRUE,TRUE,3,0.469262884,red,m,0.3599,alien1,TRUE,2,0.261886355,38,1,0.423235387,x,0.6954,0,88,88,88,1,0.423235387,0.319443506,0.559539158,0.367816979,FALSE,,,,,,,,,,,,,,,,,,,,,,,,,,,,,,,,,
GOSH_A9,2023-11-10_10h38.37.768,two_step_task_legacy,2022.2.4,Win32,60.09254252,32,learning,1,resources/alien4_norm.png,0.369930466,resources/alien3_norm.png,0.519440499,TRUE,TRUE,2,0.968393779,purple,m,0.4383,alien4,TRUE,2,0.144233413,39,1,0.369930466,x,1.3606,0,89,89,89,1,0.418674083,0.358569907,0.519440499,0.369930466,TRUE,,,,,,,,,,,,,,,,,,,,,,,,,,,,,,,,,
GOSH_A9,2023-11-10_10h38.37.768,two_step_task_legacy,2022.2.4,Win32,60.09254252,32,learning,0,resources/alien2_norm.png,0.335226703,resources/alien1_norm.png,0.445341618,TRUE,TRUE,3,0.698258803,red,m,0.4563,alien1,TRUE,3,0.855532444,39,0,0.445341618,m,0.7886,0,90,90,90,1,0.445341618,0.335226703,0.520165644,0.361172441,TRUE,,,,,,,,,,,,,,,,,,,,,,,,,,,,,,,,,
GOSH_A9,2023-11-10_10h38.37.768,two_step_task_legacy,2022.2.4,Win32,60.09254252,32,learning,0,resources/alien1_norm.png,0.445029892,resources/alien2_norm.png,0.410956136,TRUE,TRUE,3,0.546993363,red,m,0.4395,alien1,TRUE,3,0.837879599,39,0,0.445029892,x,0.8909,0,91,91,91,1,0.445029892,0.410956136,0.489104433,0.372597807,FALSE,,,,,,,,,,,,,,,,,,,,,,,,,,,,,,,,,
GOSH_A9,2023-11-10_10h38.37.768,two_step_task_legacy,2022.2.4,Win32,60.09254252,32,learning,0,resources/alien1_norm.png,0.468728915,resources/alien2_norm.png,0.429483789,TRUE,TRUE,3,0.528117998,red,m,0.3198,alien1,TRUE,3,0.725164283,39,0,0.468728915,x,0.7079,0,92,92,92,1,0.468728915,0.429483789,0.497118821,0.385293245,FALSE,,,,,,,,,,,,,,,,,,,,,,,,,,,,,,,,,
GOSH_A9,2023-11-10_10h38.37.768,two_step_task_legacy,2022.2.4,Win32,60.09254252,32,learning,0,resources/alien1_norm.png,0.475258006,resources/alien2_norm.png,0.418398241,TRUE,TRUE,3,0.393736762,red,m,0.4718,alien2,TRUE,3,0.560097494,39,0,0.418398241,m,0.5349,0,93,93,93,1,0.475258006,0.418398241,0.528385794,0.37549589,FALSE,,,,,,,,,,,,,,,,,,,,,,,,,,,,,,,,,
GOSH_A9,2023-11-10_10h38.37.768,two_step_task_legacy,2022.2.4,Win32,60.09254252,32,learning,0,resources/alien1_norm.png,0.512911999,resources/alien2_norm.png,0.429513936,TRUE,TRUE,3,0.276512108,red,m,0.4239,alien2,TRUE,2,0.111054401,40,1,0.429513936,m,0.4832,0,94,94,94,1,0.512911999,0.429513936,0.521484087,0.379394416,FALSE,,,,,,,,,,,,,,,,,,,,,,,,,,,,,,,,,
GOSH_A9,2023-11-10_10h38.37.768,two_step_task_legacy,2022.2.4,Win32,60.09254252,32,learning,1,resources/alien3_norm.png,0.527224749,resources/alien4_norm.png,0.348527437,TRUE,TRUE,2,0.856373132,purple,m,0.4559,alien4,TRUE,3,0.546086109,40,0,0.348527437,m,2.1442,0,95,95,95,1,0.539517334,0.389427504,0.527224749,0.348527437,FALSE,,,,,,,,,,,,,,,,,,,,,,,,,,,,,,,,,
GOSH_A9,2023-11-10_10h38.37.768,two_step_task_legacy,2022.2.4,Win32,60.09254252,32,learning,0,resources/alien2_norm.png,0.396279259,resources/alien1_norm.png,0.544323322,TRUE,TRUE,3,0.564440102,red,m,0.3749,alien2,TRUE,3,0.928445432,40,0,0.396279259,x,0.7552,0,96,96,96,1,0.544323322,0.396279259,0.533450367,0.310275624,TRUE,,,,,,,,,,,,,,,,,,,,,,,,,,,,,,,,,
GOSH_A9,2023-11-10_10h38.37.768,two_step_task_legacy,2022.2.4,Win32,60.09254252,32,learning,1,resources/alien3_norm.png,0.562805675,resources/alien4_norm.png,0.328075738,TRUE,TRUE,2,0.760901412,purple,m,0.6397,alien4,TRUE,3,0.933144302,40,0,0.328075738,m,0.9046,0,97,97,97,1,0.566216556,0.408374636,0.562805675,0.328075738,FALSE,,,,,,,,,,,,,,,,,,,,,,,,,,,,,,,,,
GOSH_A9,2023-11-10_10h38.37.768,two_step_task_legacy,2022.2.4,Win32,60.09254252,32,learning,1,resources/alien3_norm.png,0.520753086,resources/alien4_norm.png,0.341376023,TRUE,TRUE,2,0.852780099,purple,m,0.5168,alien4,TRUE,3,0.584288791,40,0,0.341376023,m,0.6176,0,98,98,98,1,0.570274998,0.412026002,0.520753086,0.341376023,FALSE,,,,,,,,,,,,,,,,,,,,,,,,,,,,,,,,,
GOSH_A9,2023-11-10_10h38.37.768,two_step_task_legacy,2022.2.4,Win32,60.09254252,32,learning,0,resources/alien1_norm.png,0.566895624,resources/alien2_norm.png,0.399144843,TRUE,TRUE,3,0.344378006,red,m,1.1168,alien2,TRUE,2,0.279433196,41,1,0.399144843,m,0.9053,0,99,99,99,1,0.566895624,0.399144843,0.54429023,0.334840865,FALSE,,,,,,,,,,,,,,,,,,,,,,,,,,,,,,,,,
GOSH_A9,2023-11-10_10h38.37.768,two_step_task_legacy,2022.2.4,Win32,60.09254252,32,learning,0,resources/alien1_norm.png,0.562314943,resources/alien2_norm.png,0.424889032,TRUE,TRUE,3,0.245983974,red,m,0.5062,alien2,TRUE,2,0.267267732,42,1,0.424889032,m,0.8248,0,100,100,100,1,0.562314943,0.424889032,0.536613682,0.311110319,FALSE,,,,,,,,,,,,,,,,,,,,,,,,,,,,,,,,,
GOSH_A9,2023-11-10_10h38.37.768,two_step_task_legacy,2022.2.4,Win32,60.09254252,32,learning,1,resources/alien3_norm.png,0.520983923,resources/alien4_norm.png,0.316353152,TRUE,TRUE,2,0.854908303,purple,m,0.2832,alien3,TRUE,3,0.708831092,42,0,0.520983923,x,1.0736,0,101,101,101,1,0.524140525,0.413216171,0.520983923,0.316353152,FALSE,,,,,,,,,,,,,,,,,,,,,,,,,,,,,,,,,
GOSH_A9,2023-11-10_10h38.37.768,two_step_task_legacy,2022.2.4,Win32,60.09254252,32,learning,1,resources/alien3_norm.png,0.500332353,resources/alien4_norm.png,0.315070893,TRUE,TRUE,2,0.927536668,purple,m,0.2788,alien3,TRUE,3,0.908171855,42,0,0.500332353,x,0.7398,0,102,102,102,1,0.531718216,0.41264003,0.500332353,0.315070893,FALSE,,,,,,,,,,,,,,,,,,,,,,,,,,,,,,,,,
GOSH_A9,2023-11-10_10h38.37.768,two_step_task_legacy,2022.2.4,Win32,60.09254252,32,learning,0,resources/alien1_norm.png,0.515214637,resources/alien2_norm.png,0.414336669,TRUE,TRUE,3,0.671293221,red,m,0.2673,alien2,TRUE,2,0.148445296,43,1,0.414336669,m,1.4166,0,103,103,103,1,0.515214637,0.414336669,0.505772512,0.319951423,FALSE,,,,,,,,,,,,,,,,,,,,,,,,,,,,,,,,,
GOSH_A9,2023-11-10_10h38.37.768,two_step_task_legacy,2022.2.4,Win32,60.09254252,32,learning,0,resources/alien2_norm.png,0.388359403,resources/alien1_norm.png,0.501395054,TRUE,TRUE,3,0.1267279,red,m,0.3833,alien2,TRUE,2,0.046586639,44,1,0.388359403,x,0.7046,0,104,104,104,1,0.501395054,0.388359403,0.474256044,0.34789239,TRUE,,,,,,,,,,,,,,,,,,,,,,,,,,,,,,,,,
GOSH_A9,2023-11-10_10h38.37.768,two_step_task_legacy,2022.2.4,Win32,60.09254252,32,learning,0,resources/alien1_norm.png,0.535437416,resources/alien2_norm.png,0.376983664,TRUE,TRUE,3,0.080664783,red,m,0.4105,alien2,TRUE,2,0.266593856,45,1,0.376983664,m,0.6878,0,105,105,105,1,0.535437416,0.376983664,0.482628218,0.369110125,FALSE,,,,,,,,,,,,,,,,,,,,,,,,,,,,,,,,,
GOSH_A9,2023-11-10_10h38.37.768,two_step_task_legacy,2022.2.4,Win32,60.09254252,32,learning,0,resources/alien1_norm.png,0.538694532,resources/alien2_norm.png,0.372391436,TRUE,TRUE,3,0.569152326,red,m,0.3027,alien2,TRUE,3,0.628359015,45,0,0.372391436,m,0.6341,0,106,106,106,1,0.538694532,0.372391436,0.461077677,0.38101395,FALSE,,,,,,,,,,,,,,,,,,,,,,,,,,,,,,,,,
GOSH_A9,2023-11-10_10h38.37.768,two_step_task_legacy,2022.2.4,Win32,60.09254252,32,learning,0,resources/alien2_norm.png,0.364053666,resources/alien1_norm.png,0.574921964,TRUE,TRUE,3,0.083116906,red,m,0.2406,alien2,TRUE,3,0.892433801,45,0,0.364053666,x,0.7788,0,107,107,107,1,0.574921964,0.364053666,0.449785692,0.37123011,TRUE,,,,,,,,,,,,,,,,,,,,,,,,,,,,,,,,,
GOSH_A9,2023-11-10_10h38.37.768,two_step_task_legacy,2022.2.4,Win32,60.09254252,32,learning,0,resources/alien1_norm.png,0.579335317,resources/alien2_norm.png,0.344268264,TRUE,TRUE,3,0.542437134,red,m,0.2504,alien2,TRUE,2,0.146973645,46,1,0.344268264,m,0.7846,0,108,108,108,1,0.579335317,0.344268264,0.508032371,0.404530221,FALSE,,,,,,,,,,,,,,,,,,,,,,,,,,,,,,,,,
GOSH_A9,2023-11-10_10h38.37.768,two_step_task_legacy,2022.2.4,Win32,60.09254252,32,learning,0,resources/alien2_norm.png,0.336579885,resources/alien1_norm.png,0.537947877,TRUE,TRUE,3,0.04421051,red,m,0.2497,alien2,TRUE,3,0.472467939,46,0,0.336579885,x,1.1521,0,109,109,109,1,0.537947877,0.336579885,0.529669072,0.43595818,TRUE,,,,,,,,,,,,,,,,,,,,,,,,,,,,,,,,,
GOSH_A9,2023-11-10_10h38.37.768,two_step_task_legacy,2022.2.4,Win32,60.09254252,32,learning,1,resources/alien3_norm.png,0.466519079,resources/alien4_norm.png,0.463961387,TRUE,TRUE,2,0.769341435,purple,m,0.2281,alien3,TRUE,2,0.37936054,47,1,0.466519079,x,1.3082,0,110,110,110,1,0.545291717,0.357778041,0.466519079,0.463961387,FALSE,,,,,,,,,,,,,,,,,,,,,,,,,,,,,,,,,
GOSH_A9,2023-11-10_10h38.37.768,two_step_task_legacy,2022.2.4,Win32,60.09254252,32,learning,0,resources/alien1_norm.png,0.563154971,resources/alien2_norm.png,0.323993397,TRUE,TRUE,3,0.124670831,red,m,0.5945,alien2,TRUE,3,0.702384925,47,0,0.323993397,m,0.5221,0,111,111,111,1,0.563154971,0.323993397,0.481244805,0.469580664,FALSE,,,,,,,,,,,,,,,,,,,,,,,,,,,,,,,,,
GOSH_A9,2023-11-10_10h38.37.768,two_step_task_legacy,2022.2.4,Win32,60.09254252,32,learning,0,resources/alien2_norm.png,0.343947487,resources/alien1_norm.png,0.564024248,TRUE,TRUE,3,0.544235367,red,m,0.2539,alien2,TRUE,3,0.579063496,47,0,0.343947487,x,0.7565,0,112,112,112,1,0.564024248,0.343947487,0.484575242,0.444113532,TRUE,,,,,,,,,,,,,,,,,,,,,,,,,,,,,,,,,
GOSH_A9,2023-11-10_10h38.37.768,two_step_task_legacy,2022.2.4,Win32,60.09254252,32,learning,1,resources/alien4_norm.png,0.431112029,resources/alien3_norm.png,0.485075938,TRUE,TRUE,2,0.793872575,purple,m,0.2507,alien3,TRUE,3,0.680079811,47,0,0.485075938,m,1.2227,0,113,113,113,1,0.614090142,0.319841751,0.485075938,0.431112029,TRUE,,,,,,,,,,,,,,,,,,,,,,,,,,,,,,,,,
GOSH_A9,2023-11-10_10h38.37.768,two_step_task_legacy,2022.2.4,Win32,60.09254252,32,learning,0,resources/alien2_norm.png,0.344321909,resources/alien1_norm.png,0.634874305,TRUE,TRUE,3,0.551015962,red,m,0.5877,alien2,TRUE,3,0.478743714,47,0,0.344321909,x,0.7272,0,114,114,114,1,0.634874305,0.344321909,0.498414866,0.46002207,TRUE,,,,,,,,,,,,,,,,,,,,,,,,,,,,,,,,,
GOSH_A9,2023-11-10_10h38.37.768,two_step_task_legacy,2022.2.4,Win32,60.09254252,32,learning,0,resources/alien1_norm.png,0.63430206,resources/alien2_norm.png,0.350871794,TRUE,TRUE,3,0.129321317,red,m,0.2355,alien1,TRUE,2,0.519742116,48,1,0.63430206,x,1.0628,0,115,115,115,1,0.63430206,0.350871794,0.50555614,0.50377738,FALSE,,,,,,,,,,,,,,,,,,,,,,,,,,,,,,,,,
GOSH_A9,2023-11-10_10h38.37.768,two_step_task_legacy,2022.2.4,Win32,60.09254252,32,learning,1,resources/alien4_norm.png,0.495022894,resources/alien3_norm.png,0.513032791,TRUE,TRUE,2,0.850954234,purple,m,0.7012,alien3,TRUE,2,0.40940764,49,1,0.513032791,m,1.5389,0,116,116,116,1,0.667644008,0.322684488,0.513032791,0.495022894,TRUE,,,,,,,,,,,,,,,,,,,,,,,,,,,,,,,,,
GOSH_A9,2023-11-10_10h38.37.768,two_step_task_legacy,2022.2.4,Win32,60.09254252,32,learning,0,resources/alien2_norm.png,0.309985121,resources/alien1_norm.png,0.707070434,TRUE,TRUE,3,0.205130282,red,m,0.3955,alien1,TRUE,2,0.41227379,50,1,0.707070434,m,0.6154,0,117,117,117,1,0.707070434,0.309985121,0.512195794,0.487973293,TRUE,,,,,,,,,,,,,,,,,,,,,,,,,,,,,,,,,
GOSH_A9,2023-11-10_10h38.37.768,two_step_task_legacy,2022.2.4,Win32,60.09254252,32,learning,0,resources/alien2_norm.png,0.361280529,resources/alien1_norm.png,0.689531897,TRUE,TRUE,3,0.067149555,red,m,0.2565,alien1,TRUE,2,0.203708088,51,1,0.689531897,m,0.4801,0,118,118,118,1,0.689531897,0.361280529,0.532785457,0.496819543,TRUE,,,,,,,,,,,,,,,,,,,,,,,,,,,,,,,,,
GOSH_A9,2023-11-10_10h38.37.768,two_step_task_legacy,2022.2.4,Win32,60.09254252,32,learning,0,resources/alien2_norm.png,0.368092264,resources/alien1_norm.png,0.701247287,TRUE,TRUE,3,0.26817672,red,m,0.3008,alien1,TRUE,2,0.623737566,52,1,0.701247287,m,0.5493,0,119,119,119,1,0.701247287,0.368092264,0.539732256,0.469358927,TRUE,,,,,,,,,,,,,,,,,,,,,,,,,,,,,,,,,
GOSH_A9,2023-11-10_10h38.37.768,two_step_task_legacy,2022.2.4,Win32,60.09254252,32,learning,0,resources/alien1_norm.png,0.726052512,resources/alien2_norm.png,0.347461792,TRUE,TRUE,3,0.54187087,red,m,0.4558,alien1,TRUE,2,0.465742038,53,1,0.726052512,x,0.7223,0,120,120,120,1,0.726052512,0.347461792,0.566186762,0.434884628,FALSE,,,,,,,,,,,,,,,,,,,,,,,,,,,,,,,,,
GOSH_A9,2023-11-10_10h38.37.768,two_step_task_legacy,2022.2.4,Win32,60.09254252,32,learning,1,resources/alien4_norm.png,0.439827083,resources/alien3_norm.png,0.596382899,TRUE,TRUE,2,0.744199426,purple,m,0.5337,alien3,TRUE,2,0.526220001,54,1,0.596382899,m,1.2368,0,121,121,121,1,0.738030072,0.396484292,0.596382899,0.439827083,TRUE,,,,,,,,,,,,,,,,,,,,,,,,,,,,,,,,,
GOSH_A9,2023-11-10_10h38.37.768,two_step_task_legacy,2022.2.4,Win32,60.09254252,32,learning,1,resources/alien3_norm.png,0.593281654,resources/alien4_norm.png,0.415803237,TRUE,TRUE,2,0.902116045,purple,m,0.565,alien3,TRUE,2,0.177503622,55,1,0.593281654,x,0.8547,0,122,122,122,1,0.72810507,0.423288174,0.593281654,0.415803237,FALSE,,,,,,,,,,,,,,,,,,,,,,,,,,,,,,,,,
GOSH_A9,2023-11-10_10h38.37.768,two_step_task_legacy,2022.2.4,Win32,60.09254252,32,learning,0,resources/alien2_norm.png,0.428141262,resources/alien1_norm.png,0.685307875,TRUE,TRUE,3,0.143385402,red,m,0.5049,alien1,TRUE,2,0.056157831,56,1,0.685307875,m,0.9746,0,123,123,123,1,0.685307875,0.428141262,0.614271373,0.469262118,TRUE,,,,,,,,,,,,,,,,,,,,,,,,,,,,,,,,,
GOSH_A9,2023-11-10_10h38.37.768,two_step_task_legacy,2022.2.4,Win32,60.09254252,32,learning,1,resources/alien4_norm.png,0.457012985,resources/alien3_norm.png,0.595787295,TRUE,TRUE,2,0.88588557,purple,m,0.6539,alien3,TRUE,2,0.392868701,57,1,0.595787295,m,0.6669,0,124,124,124,1,0.677719855,0.443149426,0.595787295,0.457012985,TRUE,,,,,,,,,,,,,,,,,,,,,,,,,,,,,,,,,
GOSH_A9,2023-11-10_10h38.37.768,two_step_task_legacy,2022.2.4,Win32,60.09254252,32,learning,0,resources/alien1_norm.png,0.656710467,resources/alien2_norm.png,0.465350228,TRUE,TRUE,3,0.527853847,red,m,0.5842,alien1,TRUE,2,0.579918202,58,1,0.656710467,x,1.8437,0,125,125,125,1,0.656710467,0.465350228,0.609400518,0.454510665,FALSE,,,,,,,,,,,,,,,,,,,,,,,,,,,,,,,,,
GOSH_A9,2023-11-10_10h38.37.768,two_step_task_legacy,2022.2.4,Win32,60.09254252,32,learning,0,resources/alien1_norm.png,0.658772828,resources/alien2_norm.png,0.513675801,TRUE,TRUE,3,0.467439222,red,m,0.5227,alien1,TRUE,3,0.873839406,58,0,0.658772828,x,0.8546,0,126,126,126,1,0.658772828,0.513675801,0.654267489,0.465484818,FALSE,,,,,,,,,,,,,,,,,,,,,,,,,,,,,,,,,
GOSH_A9,2023-11-10_10h38.37.768,two_step_task_legacy,2022.2.4,Win32,60.09254252,32,learning,0,resources/alien1_norm.png,0.640716477,resources/alien2_norm.png,0.44903852,TRUE,TRUE,3,0.671356561,red,m,0.3,alien1,TRUE,3,0.867171486,58,0,0.640716477,x,1.0011,0,127,127,127,1,0.640716477,0.44903852,0.649584213,0.482157085,FALSE,,,,,,,,,,,,,,,,,,,,,,,,,,,,,,,,,
GOSH_A9,2023-11-10_10h38.37.768,two_step_task_legacy,2022.2.4,Win32,60.09254252,32,learning,1,resources/alien4_norm.png,0.510855905,resources/alien3_norm.png,0.646962345,TRUE,TRUE,2,0.820431309,purple,m,0.5912,alien3,TRUE,2,0.226556399,59,1,0.646962345,m,0.9789,0,128,128,128,1,0.635324725,0.478184618,0.646962345,0.510855905,TRUE,,,,,,,,,,,,,,,,,,,,,,,,,,,,,,,,,
GOSH_A9,2023-11-10_10h38.37.768,two_step_task_legacy,2022.2.4,Win32,60.09254252,32,learning,0,resources/alien1_norm.png,0.655436374,resources/alien2_norm.png,0.460769008,TRUE,TRUE,3,0.646183958,red,m,0.4749,alien1,TRUE,3,0.699352167,59,0,0.655436374,x,0.699,0,129,129,129,1,0.655436374,0.460769008,0.653055224,0.489978701,FALSE,,,,,,,,,,,,,,,,,,,,,,,,,,,,,,,,,
GOSH_A9,2023-11-10_10h38.37.768,two_step_task_legacy,2022.2.4,Win32,60.09254252,32,learning,0,resources/alien2_norm.png,0.453479399,resources/alien1_norm.png,0.61995362,TRUE,TRUE,3,0.212407008,red,m,0.6616,alien1,TRUE,3,0.627719897,59,0,0.61995362,m,0.6043,0,130,130,130,1,0.61995362,0.453479399,0.613362747,0.485033424,TRUE,,,,,,,,,,,,,,,,,,,,,,,,,,,,,,,,,
GOSH_A9,2023-11-10_10h38.37.768,two_step_task_legacy,2022.2.4,Win32,60.09254252,32,learning,0,resources/alien2_norm.png,0.441274551,resources/alien1_norm.png,0.655513018,TRUE,TRUE,3,0.491407027,red,m,0.3393,alien1,TRUE,2,0.33669359,60,1,0.655513018,m,0.4895,0,131,131,131,1,0.655513018,0.441274551,0.618264084,0.489467803,TRUE,,,,,,,,,,,,,,,,,,,,,,,,,,,,,,,,,
GOSH_A9,2023-11-10_10h38.37.768,two_step_task_legacy,2022.2.4,Win32,60.09254252,32,learning,0,resources/alien2_norm.png,0.41905929,resources/alien1_norm.png,0.660323481,TRUE,TRUE,3,0.271436504,red,m,0.2999,alien1,TRUE,2,0.514583298,61,1,0.660323481,m,0.5743,0,132,132,132,1,0.660323481,0.41905929,0.653320808,0.508589034,TRUE,,,,,,,,,,,,,,,,,,,,,,,,,,,,,,,,,
GOSH_A9,2023-11-10_10h38.37.768,two_step_task_legacy,2022.2.4,Win32,60.09254252,32,learning,0,resources/alien1_norm.png,0.686863024,resources/alien2_norm.png,0.36029786,TRUE,TRUE,3,0.557966385,red,m,0.3091,alien1,TRUE,2,0.584229421,62,1,0.686863024,x,0.6706,0,133,133,133,1,0.686863024,0.36029786,0.634618889,0.523979081,FALSE,,,,,,,,,,,,,,,,,,,,,,,,,,,,,,,,,
GOSH_A9,2023-11-10_10h38.37.768,two_step_task_legacy,2022.2.4,Win32,60.09254252,32,learning,0,resources/alien2_norm.png,0.358149581,resources/alien1_norm.png,0.648257727,TRUE,TRUE,3,0.122434499,red,m,0.2773,alien1,TRUE,3,0.87949126,62,0,0.648257727,m,0.5204,0,134,134,134,1,0.648257727,0.358149581,0.653176435,0.561268839,TRUE,,,,,,,,,,,,,,,,,,,,,,,,,,,,,,,,,
GOSH_A9,2023-11-10_10h38.37.768,two_step_task_legacy,2022.2.4,Win32,60.09254252,32,learning,1,resources/alien4_norm.png,0.547455663,resources/alien3_norm.png,0.625661179,TRUE,TRUE,2,0.766139415,purple,m,0.2418,alien3,TRUE,3,0.907032228,62,0,0.625661179,m,0.7493,0,135,135,135,1,0.675484334,0.357335645,0.625661179,0.547455663,TRUE,,,,,,,,,,,,,,,,,,,,,,,,,,,,,,,,,
GOSH_A9,2023-11-10_10h38.37.768,two_step_task_legacy,2022.2.4,Win32,60.09254252,32,learning,0,resources/alien1_norm.png,0.694725982,resources/alien2_norm.png,0.348051174,TRUE,TRUE,3,0.366970831,red,m,0.2443,alien1,TRUE,2,0.069695549,63,1,0.694725982,x,0.7921,0,136,136,136,1,0.694725982,0.348051174,0.597727276,0.553095273,FALSE,,,,,,,,,,,,,,,,,,,,,,,,,,,,,,,,,
GOSH_A9,2023-11-10_10h38.37.768,two_step_task_legacy,2022.2.4,Win32,60.09254252,32,learning,1,resources/alien3_norm.png,0.559411518,resources/alien4_norm.png,0.553266507,TRUE,TRUE,2,0.932064847,purple,m,0.4063,alien3,TRUE,3,0.877278104,63,0,0.559411518,x,1.153,0,137,137,137,1,0.725078908,0.375888693,0.559411518,0.553266507,FALSE,,,,,,,,,,,,,,,,,,,,,,,,,,,,,,,,,
GOSH_A9,2023-11-10_10h38.37.768,two_step_task_legacy,2022.2.4,Win32,60.09254252,32,learning,1,resources/alien3_norm.png,0.557477541,resources/alien4_norm.png,0.574857827,TRUE,TRUE,2,0.943846226,purple,m,0.4665,alien3,TRUE,3,0.922059058,63,0,0.557477541,x,1.1134,0,138,138,138,1,0.697747266,0.34815686,0.557477541,0.574857827,FALSE,,,,,,,,,,,,,,,,,,,,,,,,,,,,,,,,,
GOSH_A9,2023-11-10_10h38.37.768,two_step_task_legacy,2022.2.4,Win32,60.09254252,32,learning,1,resources/alien3_norm.png,0.541784858,resources/alien4_norm.png,0.578979803,TRUE,TRUE,2,0.99492787,purple,m,0.2007,alien4,TRUE,3,0.612967081,63,0,0.578979803,m,0.6731,0,139,139,139,1,0.719369264,0.348908143,0.541784858,0.578979803,FALSE,,,,,,,,,,,,,,,,,,,,,,,,,,,,,,,,,
GOSH_A9,2023-11-10_10h38.37.768,two_step_task_legacy,2022.2.4,Win32,60.09254252,32,learning,0,resources/alien2_norm.png,0.354944319,resources/alien1_norm.png,0.721925325,TRUE,TRUE,3,0.583066936,red,m,0.3004,alien1,TRUE,3,0.733476722,63,0,0.721925325,m,1.0843,0,140,140,140,1,0.721925325,0.354944319,0.533963393,0.570999634,TRUE,,,,,,,,,,,,,,,,,,,,,,,,,,,,,,,,,
GOSH_A9,2023-11-10_10h38.37.768,two_step_task_legacy,2022.2.4,Win32,60.09254252,32,learning,0,resources/alien2_norm.png,0.373817527,resources/alien1_norm.png,0.713795562,TRUE,TRUE,3,0.539294677,red,m,0.3038,alien1,TRUE,2,0.614782295,64,1,0.713795562,m,0.7844,0,141,141,141,1,0.713795562,0.373817527,0.576751304,0.536742171,TRUE,,,,,,,,,,,,,,,,,,,,,,,,,,,,,,,,,
GOSH_A9,2023-11-10_10h38.37.768,two_step_task_legacy,2022.2.4,Win32,60.09254252,32,learning,0,resources/alien2_norm.png,0.394054994,resources/alien1_norm.png,0.740517323,TRUE,TRUE,3,0.600944943,red,m,0.4946,alien1,TRUE,3,0.91185104,64,0,0.740517323,m,0.613,0,142,142,142,1,0.740517323,0.394054994,0.540791797,0.610349275,TRUE,,,,,,,,,,,,,,,,,,,,,,,,,,,,,,,,,
GOSH_A9,2023-11-10_10h38.37.768,two_step_task_legacy,2022.2.4,Win32,60.09254252,32,learning,0,resources/alien2_norm.png,0.413737064,resources/alien1_norm.png,0.733170537,TRUE,TRUE,3,0.605820408,red,m,0.2339,alien1,TRUE,3,0.787321655,64,0,0.733170537,m,0.6169,0,143,143,143,1,0.733170537,0.413737064,0.569468549,0.588139384,TRUE,,,,,,,,,,,,,,,,,,,,,,,,,,,,,,,,,
GOSH_A9,2023-11-10_10h38.37.768,two_step_task_legacy,2022.2.4,Win32,60.09254252,32,learning,0,resources/alien2_norm.png,0.387869739,resources/alien1_norm.png,0.720948192,TRUE,TRUE,3,0.341177824,red,m,0.2777,alien1,TRUE,2,0.245560363,65,1,0.720948192,m,0.4621,0,144,144,144,1,0.720948192,0.387869739,0.577054572,0.569967256,TRUE,,,,,,,,,,,,,,,,,,,,,,,,,,,,,,,,,
GOSH_A9,2023-11-10_10h38.37.768,two_step_task_legacy,2022.2.4,Win32,60.09254252,32,learning,0,resources/alien2_norm.png,0.418056912,resources/alien1_norm.png,0.704160764,TRUE,TRUE,3,0.453448667,red,m,0.3954,alien1,TRUE,2,0.062909765,66,1,0.704160764,m,0.4956,0,145,145,145,1,0.704160764,0.418056912,0.53629869,0.552036289,TRUE,,,,,,,,,,,,,,,,,,,,,,,,,,,,,,,,,
GOSH_A9,2023-11-10_10h38.37.768,two_step_task_legacy,2022.2.4,Win32,60.09254252,32,learning,0,resources/alien2_norm.png,0.380814472,resources/alien1_norm.png,0.707264373,TRUE,TRUE,3,0.630607816,red,m,0.2527,alien1,TRUE,2,0.190685571,67,1,0.707264373,m,0.5464,0,146,146,146,1,0.707264373,0.380814472,0.50086888,0.516810427,TRUE,,,,,,,,,,,,,,,,,,,,,,,,,,,,,,,,,
GOSH_A9,2023-11-10_10h38.37.768,two_step_task_legacy,2022.2.4,Win32,60.09254252,32,learning,0,resources/alien2_norm.png,0.382390844,resources/alien1_norm.png,0.689129267,TRUE,TRUE,3,0.496850602,red,m,0.2934,alien1,TRUE,3,0.979009117,67,0,0.689129267,m,0.4901,0,147,147,147,1,0.689129267,0.382390844,0.505993031,0.498941854,TRUE,,,,,,,,,,,,,,,,,,,,,,,,,,,,,,,,,
GOSH_A9,2023-11-10_10h38.37.768,two_step_task_legacy,2022.2.4,Win32,60.09254252,32,learning,0,resources/alien1_norm.png,0.721410809,resources/alien2_norm.png,0.313154918,TRUE,TRUE,3,0.014303985,red,m,0.2331,alien1,TRUE,2,0.51891893,68,1,0.721410809,x,0.9064,0,148,148,148,1,0.721410809,0.313154918,0.430119945,0.532689028,FALSE,,,,,,,,,,,,,,,,,,,,,,,,,,,,,,,,,
GOSH_A9,2023-11-10_10h38.37.768,two_step_task_legacy,2022.2.4,Win32,60.09254252,32,learning,1,resources/alien3_norm.png,0.421554333,resources/alien4_norm.png,0.543528828,TRUE,TRUE,2,0.774904758,purple,m,0.3243,alien4,TRUE,2,0.266850832,69,1,0.543528828,m,0.9871,0,149,149,149,1,0.713441678,0.345847125,0.421554333,0.543528828,FALSE,,,,,,,,,,,,,,,,,,,,,,,,,,,,,,,,,
GOSH_A9,2023-11-10_10h38.37.768,two_step_task_legacy,2022.2.4,Win32,60.09254252,32,learning,0,resources/alien2_norm.png,0.3,resources/alien1_norm.png,0.7,TRUE,TRUE,3,0.017525497,red,m,0.4007,alien1,TRUE,2,0.090955537,70,1,0.7,m,0.5141,0,150,150,150,1,0.7,0.3,0.4,0.6,TRUE,,,,,,,,,,,,,,,,,,,,,,,,,,,,,,,,,
GOSH_A9,2023-11-10_10h38.37.768,two_step_task_legacy,2022.2.4,Win32,60.09254252,32,learning,1,resources/alien4_norm.png,0.6,resources/alien3_norm.png,0.4,TRUE,TRUE,2,0.920430776,purple,m,0.3007,alien4,TRUE,3,0.93674005,70,0,0.6,x,0.5917,0,151,151,151,1,0.7,0.3,0.4,0.6,TRUE,,,,,,,,,,,,,,,,,,,,,,,,,,,,,,,,,
GOSH_A9,2023-11-10_10h38.37.768,two_step_task_legacy,2022.2.4,Win32,60.09254252,32,learning,1,resources/alien3_norm.png,0.4,resources/alien4_norm.png,0.6,TRUE,TRUE,2,0.821690659,purple,m,0.3185,alien4,TRUE,3,0.675138184,70,0,0.6,m,0.7117,0,152,152,152,1,0.7,0.3,0.4,0.6,FALSE,,,,,,,,,,,,,,,,,,,,,,,,,,,,,,,,,
GOSH_A9,2023-11-10_10h38.37.768,two_step_task_legacy,2022.2.4,Win32,60.09254252,32,learning,0,resources/alien1_norm.png,0.7,resources/alien2_norm.png,0.3,TRUE,TRUE,3,0.428965101,red,m,0.5611,alien1,TRUE,3,0.987424522,70,0,0.7,x,1.0707,0,153,153,153,1,0.7,0.3,0.4,0.6,FALSE,,,,,,,,,,,,,,,,,,,,,,,,,,,,,,,,,
GOSH_A9,2023-11-10_10h38.37.768,two_step_task_legacy,2022.2.4,Win32,60.09254252,32,learning,0,resources/alien2_norm.png,0.3,resources/alien1_norm.png,0.7,TRUE,TRUE,3,0.38280391,red,m,0.5673,alien1,TRUE,2,0.319863176,71,1,0.7,m,0.7499,0,154,154,154,1,0.7,0.3,0.4,0.6,TRUE,,,,,,,,,,,,,,,,,,,,,,,,,,,,,,,,,
GOSH_A9,2023-11-10_10h38.37.768,two_step_task_legacy,2022.2.4,Win32,60.09254252,32,learning,0,resources/alien1_norm.png,0.7,resources/alien2_norm.png,0.3,TRUE,TRUE,3,0.262188965,red,m,0.5117,alien1,TRUE,2,0.243424794,72,1,0.7,x,0.854,0,155,155,155,1,0.7,0.3,0.4,0.6,FALSE,,,,,,,,,,,,,,,,,,,,,,,,,,,,,,,,,
GOSH_A9,2023-11-10_10h38.37.768,two_step_task_legacy,2022.2.4,Win32,60.09254252,32,learning,0,resources/alien3_norm.png,0.4,resources/alien4_norm.png,0.6,TRUE,TRUE,2,0.576705448,purple,x,0.4166,alien4,TRUE,2,0.546679634,73,1,0.6,m,1.634,0,156,156,156,1,0.7,0.3,0.4,0.6,FALSE,,,,,,,,,,,,,,,,,,,,,,,,,,,,,,,,,
GOSH_A9,2023-11-10_10h38.37.768,two_step_task_legacy,2022.2.4,Win32,60.09254252,32,learning,1,resources/alien3_norm.png,0.4,resources/alien4_norm.png,0.6,TRUE,TRUE,2,0.901317834,purple,m,0.5106,alien4,TRUE,2,0.556569801,74,1,0.6,m,0.554,0,157,157,157,1,0.7,0.3,0.4,0.6,FALSE,,,,,,,,,,,,,,,,,,,,,,,,,,,,,,,,,
GOSH_A9,2023-11-10_10h38.37.768,two_step_task_legacy,2022.2.4,Win32,60.09254252,32,learning,1,resources/alien4_norm.png,0.6,resources/alien3_norm.png,0.4,TRUE,TRUE,2,0.819699254,purple,m,0.234,alien4,TRUE,2,0.24841933,75,1,0.6,x,0.8619,0,158,158,158,1,0.7,0.3,0.4,0.6,TRUE,,,,,,,,,,,,,,,,,,,,,,,,,,,,,,,,,
GOSH_A9,2023-11-10_10h38.37.768,two_step_task_legacy,2022.2.4,Win32,60.09254252,32,learning,0,resources/alien2_norm.png,0.3,resources/alien1_norm.png,0.7,TRUE,TRUE,3,0.157799455,red,m,0.3004,alien1,TRUE,2,0.661510437,76,1,0.7,m,1.0369,0,159,159,159,1,0.7,0.3,0.4,0.6,TRUE,,,,,,,,,,,,,,,,,,,,,,,,,,,,,,,,,
GOSH_A9,2023-11-10_10h38.37.768,two_step_task_legacy,2022.2.4,Win32,60.09254252,32,learning,0,resources/alien2_norm.png,0.3,resources/alien1_norm.png,0.7,TRUE,TRUE,3,0.514022709,red,m,0.3229,alien1,TRUE,2,0.390723914,77,1,0.7,m,0.684,0,160,160,160,1,0.7,0.3,0.4,0.6,TRUE,,,,,,,,,,,,,,,,,,,,,,,,,,,,,,,,,
GOSH_A9,2023-11-10_10h38.37.768,two_step_task_legacy,2022.2.4,Win32,60.09254252,32,learning,0,resources/alien2_norm.png,0.3,resources/alien1_norm.png,0.7,TRUE,TRUE,3,0.549030185,red,m,0.3193,alien1,TRUE,2,0.317378607,78,1,0.7,m,0.5636,0,161,161,161,1,0.7,0.3,0.4,0.6,TRUE,,,,,,,,,,,,,,,,,,,,,,,,,,,,,,,,,
GOSH_A9,2023-11-10_10h38.37.768,two_step_task_legacy,2022.2.4,Win32,60.09254252,32,learning,0,resources/alien2_norm.png,0.3,resources/alien1_norm.png,0.7,TRUE,TRUE,3,0.131771563,red,m,0.3613,alien1,TRUE,2,0.128019847,79,1,0.7,m,0.6334,0,162,162,162,1,0.7,0.3,0.4,0.6,TRUE,,,,,,,,,,,,,,,,,,,,,,,,,,,,,,,,,
GOSH_A9,2023-11-10_10h38.37.768,two_step_task_legacy,2022.2.4,Win32,60.09254252,32,learning,0,resources/alien1_norm.png,0.7,resources/alien2_norm.png,0.3,TRUE,TRUE,3,0.399553943,red,m,0.7542,alien1,TRUE,3,0.949880804,79,0,0.7,x,0.7838,0,163,163,163,1,0.7,0.3,0.4,0.6,FALSE,,,,,,,,,,,,,,,,,,,,,,,,,,,,,,,,,
GOSH_A9,2023-11-10_10h38.37.768,two_step_task_legacy,2022.2.4,Win32,60.09254252,32,learning,0,resources/alien2_norm.png,0.3,resources/alien1_norm.png,0.7,TRUE,TRUE,3,0.59044087,red,m,0.2434,alien1,TRUE,3,0.874681918,79,0,0.7,m,0.5898,0,164,164,164,1,0.7,0.3,0.4,0.6,TRUE,,,,,,,,,,,,,,,,,,,,,,,,,,,,,,,,,
GOSH_A9,2023-11-10_10h38.37.768,two_step_task_legacy,2022.2.4,Win32,60.09254252,32,learning,0,resources/alien2_norm.png,0.3,resources/alien1_norm.png,0.7,TRUE,TRUE,3,0.441348579,red,m,0.4555,alien1,TRUE,3,0.820963322,79,0,0.7,m,0.3719,0,165,165,165,1,0.7,0.3,0.4,0.6,TRUE,,,,,,,,,,,,,,,,,,,,,,,,,,,,,,,,,
GOSH_A9,2023-11-10_10h38.37.768,two_step_task_legacy,2022.2.4,Win32,60.09254252,32,learning,0,resources/alien2_norm.png,0.3,resources/alien1_norm.png,0.7,TRUE,TRUE,3,0.020017225,red,m,0.3692,alien2,TRUE,3,0.907369405,79,0,0.3,x,0.521,0,166,166,166,1,0.7,0.3,0.4,0.6,TRUE,,,,,,,,,,,,,,,,,,,,,,,,,,,,,,,,,
GOSH_A9,2023-11-10_10h38.37.768,two_step_task_legacy,2022.2.4,Win32,60.09254252,32,learning,0,resources/alien2_norm.png,0.3,resources/alien1_norm.png,0.7,TRUE,TRUE,3,0.62406438,red,m,0.6211,alien2,TRUE,3,0.590917096,79,0,0.3,x,0.5352,0,167,167,167,1,0.7,0.3,0.4,0.6,TRUE,,,,,,,,,,,,,,,,,,,,,,,,,,,,,,,,,
GOSH_A9,2023-11-10_10h38.37.768,two_step_task_legacy,2022.2.4,Win32,60.09254252,32,learning,0,resources/alien1_norm.png,0.7,resources/alien2_norm.png,0.3,TRUE,TRUE,3,0.282198221,red,m,0.2892,alien2,TRUE,3,0.503629967,79,0,0.3,m,0.4935,0,168,168,168,1,0.7,0.3,0.4,0.6,FALSE,,,,,,,,,,,,,,,,,,,,,,,,,,,,,,,,,
GOSH_A9,2023-11-10_10h38.37.768,two_step_task_legacy,2022.2.4,Win32,60.09254252,32,learning,0,resources/alien1_norm.png,0.7,resources/alien2_norm.png,0.3,TRUE,TRUE,3,0.53046254,red,m,0.3842,alien1,TRUE,3,0.867722732,79,0,0.7,x,0.7624,0,169,169,169,1,0.7,0.3,0.4,0.6,FALSE,,,,,,,,,,,,,,,,,,,,,,,,,,,,,,,,,
GOSH_A9,2023-11-10_10h38.37.768,two_step_task_legacy,2022.2.4,Win32,60.09254252,32,learning,0,resources/alien2_norm.png,0.3,resources/alien1_norm.png,0.7,TRUE,TRUE,3,0.448838373,red,m,0.3292,alien1,TRUE,3,0.843865091,79,0,0.7,m,0.988,0,170,170,170,1,0.7,0.3,0.4,0.6,TRUE,,,,,,,,,,,,,,,,,,,,,,,,,,,,,,,,,
GOSH_A9,2023-11-10_10h38.37.768,two_step_task_legacy,2022.2.4,Win32,60.09254252,32,learning,0,resources/alien1_norm.png,0.7,resources/alien2_norm.png,0.3,TRUE,TRUE,3,0.632840518,red,m,0.6075,alien1,TRUE,3,0.757261841,79,0,0.7,x,0.6678,0,171,171,171,1,0.7,0.3,0.4,0.6,FALSE,,,,,,,,,,,,,,,,,,,,,,,,,,,,,,,,,
GOSH_A9,2023-11-10_10h38.37.768,two_step_task_legacy,2022.2.4,Win32,60.09254252,32,learning,0,resources/alien1_norm.png,0.7,resources/alien2_norm.png,0.3,TRUE,TRUE,3,0.429867632,red,m,0.6113,alien2,TRUE,3,0.966986101,79,0,0.3,m,2.1264,0,172,172,172,1,0.7,0.3,0.4,0.6,FALSE,,,,,,,,,,,,,,,,,,,,,,,,,,,,,,,,,
GOSH_A9,2023-11-10_10h38.37.768,two_step_task_legacy,2022.2.4,Win32,60.09254252,32,learning,0,resources/alien2_norm.png,0.3,resources/alien1_norm.png,0.7,TRUE,TRUE,3,0.244177538,red,m,0.45,alien2,TRUE,3,0.594038047,79,0,0.3,x,0.8608,0,173,173,173,1,0.7,0.3,0.4,0.6,TRUE,,,,,,,,,,,,,,,,,,,,,,,,,,,,,,,,,
GOSH_A9,2023-11-10_10h38.37.768,two_step_task_legacy,2022.2.4,Win32,60.09254252,32,learning,1,resources/alien1_norm.png,0.7,resources/alien2_norm.png,0.3,TRUE,TRUE,3,0.755117584,red,x,0.7345,alien2,TRUE,3,0.626984474,79,0,0.3,m,1.329,0,174,174,174,1,0.7,0.3,0.4,0.6,FALSE,,,,,,,,,,,,,,,,,,,,,,,,,,,,,,,,,
GOSH_A9,2023-11-10_10h38.37.768,two_step_task_legacy,2022.2.4,Win32,60.09254252,32,learning,0,resources/alien3_norm.png,0.4,resources/alien4_norm.png,0.6,TRUE,TRUE,2,0.691226699,purple,x,0.4616,alien4,TRUE,3,0.988078108,79,0,0.6,m,1.4341,0,175,175,175,1,0.7,0.3,0.4,0.6,FALSE,,,,,,,,,,,,,,,,,,,,,,,,,,,,,,,,,
GOSH_A9,2023-11-10_10h38.37.768,two_step_task_legacy,2022.2.4,Win32,60.09254252,32,learning,0,resources/alien3_norm.png,0.4,resources/alien4_norm.png,0.6,TRUE,TRUE,2,0.587291938,purple,x,0.4355,alien4,TRUE,2,0.283872978,80,1,0.6,m,0.8731,0,176,176,176,1,0.7,0.3,0.4,0.6,FALSE,,,,,,,,,,,,,,,,,,,,,,,,,,,,,,,,,
GOSH_A9,2023-11-10_10h38.37.768,two_step_task_legacy,2022.2.4,Win32,60.09254252,32,learning,1,resources/alien1_norm.png,0.7,resources/alien2_norm.png,0.3,TRUE,TRUE,3,0.767473114,red,x,0.6239,alien2,TRUE,3,0.665717858,80,0,0.3,m,2.0607,0,177,177,177,1,0.7,0.3,0.4,0.6,FALSE,,,,,,,,,,,,,,,,,,,,,,,,,,,,,,,,,
GOSH_A9,2023-11-10_10h38.37.768,two_step_task_legacy,2022.2.4,Win32,60.09254252,32,learning,0,resources/alien3_norm.png,0.4,resources/alien4_norm.png,0.6,TRUE,TRUE,2,0.410077694,purple,x,0.3375,alien4,TRUE,2,0.303071327,81,1,0.6,m,0.9203,0,178,178,178,1,0.7,0.3,0.4,0.6,FALSE,,,,,,,,,,,,,,,,,,,,,,,,,,,,,,,,,
GOSH_A9,2023-11-10_10h38.37.768,two_step_task_legacy,2022.2.4,Win32,60.09254252,32,learning,1,resources/alien1_norm.png,0.7,resources/alien2_norm.png,0.3,TRUE,TRUE,3,0.845313071,red,x,0.4371,alien2,TRUE,2,0.111043398,82,1,0.3,m,1.3137,0,179,179,179,1,0.7,0.3,0.4,0.6,FALSE,,,,,,,,,,,,,,,,,,,,,,,,,,,,,,,,,
GOSH_A9,2023-11-10_10h38.37.768,two_step_task_legacy,2022.2.4,Win32,60.09254252,32,learning,0,resources/alien3_norm.png,0.4,resources/alien4_norm.png,0.6,TRUE,TRUE,2,0.035932517,purple,x,0.5097,alien4,TRUE,2,0.25958554,83,1,0.6,m,0.998,0,180,180,180,1,0.7,0.3,0.4,0.6,FALSE,,,,,,,,,,,,,,,,,,,,,,,,,,,,,,,,,
GOSH_A9,2023-11-10_10h38.37.768,two_step_task_legacy,2022.2.4,Win32,60.09254252,32,learning,0,resources/alien3_norm.png,0.4,resources/alien4_norm.png,0.6,TRUE,TRUE,2,0.141927413,purple,x,0.3331,alien4,TRUE,2,0.185654198,84,1,0.6,m,0.957,0,181,181,181,1,0.7,0.3,0.4,0.6,FALSE,,,,,,,,,,,,,,,,,,,,,,,,,,,,,,,,,
GOSH_A9,2023-11-10_10h38.37.768,two_step_task_legacy,2022.2.4,Win32,60.09254252,32,learning,0,resources/alien3_norm.png,0.4,resources/alien4_norm.png,0.6,TRUE,TRUE,2,0.440362749,purple,x,0.4234,alien4,TRUE,3,0.8118921,84,0,0.6,m,0.5403,0,182,182,182,1,0.7,0.3,0.4,0.6,FALSE,,,,,,,,,,,,,,,,,,,,,,,,,,,,,,,,,
GOSH_A9,2023-11-10_10h38.37.768,two_step_task_legacy,2022.2.4,Win32,60.09254252,32,learning,0,resources/alien4_norm.png,0.6,resources/alien3_norm.png,0.4,TRUE,TRUE,2,0.419592122,purple,x,0.285,alien4,TRUE,2,0.1532591,85,1,0.6,x,0.8115,0,183,183,183,1,0.7,0.3,0.4,0.6,TRUE,,,,,,,,,,,,,,,,,,,,,,,,,,,,,,,,,
GOSH_A9,2023-11-10_10h38.37.768,two_step_task_legacy,2022.2.4,Win32,60.09254252,32,learning,0,resources/alien3_norm.png,0.4,resources/alien4_norm.png,0.6,TRUE,TRUE,2,0.005604303,purple,x,0.281,alien4,TRUE,3,0.953799703,85,0,0.6,m,0.7404,0,184,184,184,1,0.7,0.3,0.4,0.6,FALSE,,,,,,,,,,,,,,,,,,,,,,,,,,,,,,,,,
GOSH_A9,2023-11-10_10h38.37.768,two_step_task_legacy,2022.2.4,Win32,60.09254252,32,learning,0,resources/alien3_norm.png,0.4,resources/alien4_norm.png,0.6,TRUE,TRUE,2,0.614521671,purple,x,0.2462,alien4,TRUE,3,0.650719024,85,0,0.6,m,0.7466,0,185,185,185,1,0.7,0.3,0.4,0.6,FALSE,,,,,,,,,,,,,,,,,,,,,,,,,,,,,,,,,
GOSH_A9,2023-11-10_10h38.37.768,two_step_task_legacy,2022.2.4,Win32,60.09254252,32,learning,0,resources/alien4_norm.png,0.6,resources/alien3_norm.png,0.4,TRUE,TRUE,2,0.153980268,purple,x,0.4465,alien4,TRUE,2,0.310331798,86,1,0.6,x,0.8729,0,186,186,186,1,0.7,0.3,0.4,0.6,TRUE,,,,,,,,,,,,,,,,,,,,,,,,,,,,,,,,,
GOSH_A9,2023-11-10_10h38.37.768,two_step_task_legacy,2022.2.4,Win32,60.09254252,32,learning,0,resources/alien4_norm.png,0.6,resources/alien3_norm.png,0.4,TRUE,TRUE,2,0.680159661,purple,x,0.4039,alien4,TRUE,2,0.400567714,87,1,0.6,x,0.821,0,187,187,187,1,0.7,0.3,0.4,0.6,TRUE,,,,,,,,,,,,,,,,,,,,,,,,,,,,,,,,,
GOSH_A9,2023-11-10_10h38.37.768,two_step_task_legacy,2022.2.4,Win32,60.09254252,32,learning,1,resources/alien2_norm.png,0.3,resources/alien1_norm.png,0.7,TRUE,TRUE,3,0.838227644,red,x,0.9796,alien2,TRUE,3,0.939459831,87,0,0.3,x,1.1168,0,188,188,188,1,0.7,0.3,0.4,0.6,TRUE,,,,,,,,,,,,,,,,,,,,,,,,,,,,,,,,,
GOSH_A9,2023-11-10_10h38.37.768,two_step_task_legacy,2022.2.4,Win32,60.09254252,32,learning,0,resources/alien4_norm.png,0.6,resources/alien3_norm.png,0.4,TRUE,TRUE,2,0.114485053,purple,x,0.3674,alien4,TRUE,2,0.433537425,88,1,0.6,x,1.0113,0,189,189,189,1,0.7,0.3,0.4,0.6,TRUE,,,,,,,,,,,,,,,,,,,,,,,,,,,,,,,,,
GOSH_A9,2023-11-10_10h38.37.768,two_step_task_legacy,2022.2.4,Win32,60.09254252,32,learning,1,resources/alien1_norm.png,0.7,resources/alien2_norm.png,0.3,TRUE,TRUE,3,0.906952573,red,x,0.2691,alien2,TRUE,3,0.517267824,88,0,0.3,m,0.8891,0,190,190,190,1,0.7,0.3,0.4,0.6,FALSE,,,,,,,,,,,,,,,,,,,,,,,,,,,,,,,,,
GOSH_A9,2023-11-10_10h38.37.768,two_step_task_legacy,2022.2.4,Win32,60.09254252,32,learning,0,resources/alien4_norm.png,0.6,resources/alien3_norm.png,0.4,TRUE,TRUE,2,0.088414845,purple,x,0.4223,alien4,TRUE,3,0.61662615,88,0,0.6,x,0.867,0,191,191,191,1,0.7,0.3,0.4,0.6,TRUE,,,,,,,,,,,,,,,,,,,,,,,,,,,,,,,,,
GOSH_A9,2023-11-10_10h38.37.768,two_step_task_legacy,2022.2.4,Win32,60.09254252,32,learning,0,resources/alien1_norm.png,0.7,resources/alien2_norm.png,0.3,TRUE,TRUE,3,0.462365268,red,m,0.7452,alien2,TRUE,3,0.877887229,88,0,0.3,m,0.9276,0,192,192,192,1,0.7,0.3,0.4,0.6,FALSE,,,,,,,,,,,,,,,,,,,,,,,,,,,,,,,,,
GOSH_A9,2023-11-10_10h38.37.768,two_step_task_legacy,2022.2.4,Win32,60.09254252,32,learning,0,resources/alien3_norm.png,0.4,resources/alien4_norm.png,0.6,TRUE,TRUE,2,0.153251504,purple,x,0.35,alien4,TRUE,3,0.903715626,88,0,0.6,m,2.1669,0,193,193,193,1,0.7,0.3,0.4,0.6,FALSE,,,,,,,,,,,,,,,,,,,,,,,,,,,,,,,,,
GOSH_A9,2023-11-10_10h38.37.768,two_step_task_legacy,2022.2.4,Win32,60.09254252,32,learning,0,resources/alien4_norm.png,0.6,resources/alien3_norm.png,0.4,TRUE,TRUE,2,0.276794139,purple,x,1.0288,alien4,TRUE,3,0.904721531,88,0,0.6,x,1.0048,0,194,194,194,1,0.7,0.3,0.4,0.6,TRUE,,,,,,,,,,,,,,,,,,,,,,,,,,,,,,,,,
GOSH_A9,2023-11-10_10h38.37.768,two_step_task_legacy,2022.2.4,Win32,60.09254252,32,learning,0,resources/alien3_norm.png,0.4,resources/alien4_norm.png,0.6,TRUE,TRUE,2,0.589559223,purple,x,0.5477,alien3,TRUE,3,0.420714391,88,0,0.4,x,0.7603,0,195,195,195,1,0.7,0.3,0.4,0.6,FALSE,,,,,,,,,,,,,,,,,,,,,,,,,,,,,,,,,
GOSH_A9,2023-11-10_10h38.37.768,two_step_task_legacy,2022.2.4,Win32,60.09254252,32,learning,1,resources/alien2_norm.png,0.3,resources/alien1_norm.png,0.7,TRUE,TRUE,3,0.986392141,red,x,0.5777,alien1,TRUE,2,0.465836272,89,1,0.7,m,1.4097,0,196,196,196,1,0.7,0.3,0.4,0.6,TRUE,,,,,,,,,,,,,,,,,,,,,,,,,,,,,,,,,
GOSH_A9,2023-11-10_10h38.37.768,two_step_task_legacy,2022.2.4,Win32,60.09254252,32,learning,1,resources/alien2_norm.png,0.3,resources/alien1_norm.png,0.7,TRUE,TRUE,3,0.939094005,red,x,0.4219,alien1,TRUE,2,0.051275198,90,1,0.7,m,0.6099,0,197,197,197,1,0.7,0.3,0.4,0.6,TRUE,,,,,,,,,,,,,,,,,,,,,,,,,,,,,,,,,
GOSH_A9,2023-11-10_10h38.37.768,two_step_task_legacy,2022.2.4,Win32,60.09254252,32,learning,0,resources/alien4_norm.png,0.6,resources/alien3_norm.png,0.4,TRUE,TRUE,2,0.544290955,purple,x,0.3507,alien3,TRUE,3,0.738319782,90,0,0.4,m,1.3063,0,198,198,198,1,0.7,0.3,0.4,0.6,TRUE,,,,,,,,,,,,,,,,,,,,,,,,,,,,,,,,,
GOSH_A9,2023-11-10_10h38.37.768,two_step_task_legacy,2022.2.4,Win32,60.09254252,32,learning,1,resources/alien2_norm.png,0.3,resources/alien1_norm.png,0.7,TRUE,TRUE,3,0.938671204,red,x,0.316,alien1,TRUE,2,0.594889144,91,1,0.7,m,1.205,0,199,199,199,1,0.7,0.3,0.4,0.6,TRUE,,,,,,,,,,,,,,,,,,,,,,,,,,,,,,,,,
GOSH_A9,2023-11-10_10h38.37.768,two_step_task_legacy,2022.2.4,Win32,60.09254252,32,learning,0,resources/alien3_norm.png,0.4,resources/alien4_norm.png,0.6,TRUE,TRUE,2,0.122932132,purple,x,0.3557,alien3,TRUE,2,0.107372834,92,1,0.4,x,1.0662,0,200,200,200,1,0.7,0.3,0.4,0.6,FALSE,,,,,,,,,,,,,,,,,,,,,,,,,,,,,,,,,
GOSH_A9,2023-11-10_10h38.37.768,two_step_task_legacy,2022.2.4,Win32,60.09254252,32,learning,0,resources/alien4_norm.png,0.6,resources/alien3_norm.png,0.4,TRUE,TRUE,2,0.646875576,purple,x,0.2673,alien3,TRUE,3,0.656849633,92,0,0.4,m,0.9273,0,201,201,201,1,0.7,0.3,0.4,0.6,TRUE,,,,,,,,,,,,,,,,,,,,,,,,,,,,,,,,,
GOSH_A9,2023-11-10_10h38.37.768,two_step_task_legacy,2022.2.4,Win32,60.09254252,32,learning,1,resources/alien1_norm.png,0.7,resources/alien2_norm.png,0.3,TRUE,TRUE,3,0.707024422,red,x,0.5572,alien1,TRUE,2,0.489668176,93,1,0.7,x,0.72,0,202,202,202,1,0.7,0.3,0.4,0.6,FALSE,,,,,,,,,,,,,,,,,,,,,,,,,,,,,,,,,
GOSH_A9,2023-11-10_10h38.37.768,two_step_task_legacy,2022.2.4,Win32,60.09254252,32,learning,0,resources/alien3_norm.png,0.4,resources/alien4_norm.png,0.6,TRUE,TRUE,2,0.169441329,purple,x,0.4396,alien3,TRUE,3,0.869476144,93,0,0.4,x,0.854,0,203,203,203,1,0.7,0.3,0.4,0.6,FALSE,,,,,,,,,,,,,,,,,,,,,,,,,,,,,,,,,
GOSH_A9,2023-11-10_10h38.37.768,two_step_task_legacy,2022.2.4,Win32,60.09254252,32,learning,1,resources/alien1_norm.png,0.7,resources/alien2_norm.png,0.3,TRUE,TRUE,3,0.791519195,red,x,0.2331,alien1,TRUE,3,0.903926128,93,0,0.7,x,0.7777,0,204,204,204,1,0.7,0.3,0.4,0.6,FALSE,,,,,,,,,,,,,,,,,,,,,,,,,,,,,,,,,
GOSH_A9,2023-11-10_10h38.37.768,two_step_task_legacy,2022.2.4,Win32,60.09254252,32,learning,0,resources/alien3_norm.png,0.4,resources/alien4_norm.png,0.6,TRUE,TRUE,2,0.504806599,purple,x,0.2186,alien3,TRUE,3,0.861079064,93,0,0.4,x,0.811,0,205,205,205,1,0.7,0.3,0.4,0.6,FALSE,,,,,,,,,,,,,,,,,,,,,,,,,,,,,,,,,
GOSH_A9,2023-11-10_10h38.37.768,two_step_task_legacy,2022.2.4,Win32,60.09254252,32,learning,0,resources/alien4_norm.png,0.6,resources/alien3_norm.png,0.4,TRUE,TRUE,2,0.646985289,purple,x,0.2505,alien3,TRUE,3,0.787143193,93,0,0.4,m,0.6953,0,206,206,206,1,0.7,0.3,0.4,0.6,TRUE,,,,,,,,,,,,,,,,,,,,,,,,,,,,,,,,,
GOSH_A9,2023-11-10_10h38.37.768,two_step_task_legacy,2022.2.4,Win32,60.09254252,32,learning,0,resources/alien3_norm.png,0.4,resources/alien4_norm.png,0.6,TRUE,TRUE,2,0.223085205,purple,x,0.4516,alien3,TRUE,2,0.090427983,94,1,0.4,x,0.573,0,207,207,207,1,0.7,0.3,0.4,0.6,FALSE,,,,,,,,,,,,,,,,,,,,,,,,,,,,,,,,,
GOSH_A9,2023-11-10_10h38.37.768,two_step_task_legacy,2022.2.4,Win32,60.09254252,32,learning,0,resources/alien3_norm.png,0.4,resources/alien4_norm.png,0.6,TRUE,TRUE,2,0.120613121,purple,x,0.2376,alien3,TRUE,3,0.772981143,94,0,0.4,x,0.6344,0,208,208,208,1,0.7,0.3,0.4,0.6,FALSE,,,,,,,,,,,,,,,,,,,,,,,,,,,,,,,,,
GOSH_A9,2023-11-10_10h38.37.768,two_step_task_legacy,2022.2.4,Win32,60.09254252,32,learning,1,resources/alien2_norm.png,0.3,resources/alien1_norm.png,0.7,TRUE,TRUE,3,0.868312004,red,x,0.2427,alien1,TRUE,2,0.347634347,95,1,0.7,m,1.173,0,209,209,209,1,0.7,0.3,0.4,0.6,TRUE,,,,,,,,,,,,,,,,,,,,,,,,,,,,,,,,,
GOSH_A9,2023-11-10_10h38.37.768,two_step_task_legacy,2022.2.4,Win32,60.09254252,32,learning,0,resources/alien4_norm.png,0.6,resources/alien3_norm.png,0.4,TRUE,TRUE,2,0.011210622,purple,x,0.4549,alien3,TRUE,3,0.887799588,95,0,0.4,m,0.6701,0,210,210,210,1,0.7,0.3,0.4,0.6,TRUE,,,,,,,,,,,,,,,,,,,,,,,,,,,,,,,,,
GOSH_A9,2023-11-10_10h38.37.768,two_step_task_legacy,2022.2.4,Win32,60.09254252,32,learning,1,resources/alien2_norm.png,0.3,resources/alien1_norm.png,0.7,TRUE,TRUE,3,0.734266681,red,x,0.2788,alien1,TRUE,3,0.987221079,95,0,0.7,m,0.6449,0,211,211,211,1,0.7,0.3,0.4,0.6,TRUE,,,,,,,,,,,,,,,,,,,,,,,,,,,,,,,,,
GOSH_A9,2023-11-10_10h38.37.768,two_step_task_legacy,2022.2.4,Win32,60.09254252,32,learning,0,resources/alien3_norm.png,0.4,resources/alien4_norm.png,0.6,TRUE,TRUE,2,0.095972225,purple,x,0.4017,alien4,TRUE,3,0.658308065,95,0,0.6,m,0.5725,0,212,212,212,1,0.7,0.3,0.4,0.6,FALSE,,,,,,,,,,,,,,,,,,,,,,,,,,,,,,,,,
GOSH_A9,2023-11-10_10h38.37.768,two_step_task_legacy,2022.2.4,Win32,60.09254252,32,learning,0,resources/alien4_norm.png,0.6,resources/alien3_norm.png,0.4,TRUE,TRUE,2,0.500569366,purple,x,0.3727,alien4,TRUE,3,0.982140759,95,0,0.6,x,0.6012,0,213,213,213,1,0.7,0.3,0.4,0.6,TRUE,,,,,,,,,,,,,,,,,,,,,,,,,,,,,,,,,
GOSH_A9,2023-11-10_10h38.37.768,two_step_task_legacy,2022.2.4,Win32,60.09254252,32,learning,0,resources/alien4_norm.png,0.6,resources/alien3_norm.png,0.4,TRUE,TRUE,2,0.375723256,purple,x,0.4444,alien4,TRUE,2,0.307799439,96,1,0.6,x,0.5064,0,214,214,214,1,0.7,0.3,0.4,0.6,TRUE,,,,,,,,,,,,,,,,,,,,,,,,,,,,,,,,,
GOSH_A9,2023-11-10_10h38.37.768,two_step_task_legacy,2022.2.4,Win32,60.09254252,32,learning,0,resources/alien3_norm.png,0.4,resources/alien4_norm.png,0.6,TRUE,TRUE,2,0.233960161,purple,x,0.3227,alien4,TRUE,2,0.366971869,97,1,0.6,m,1.118,0,215,215,215,1,0.7,0.3,0.4,0.6,FALSE,,,,,,,,,,,,,,,,,,,,,,,,,,,,,,,,,
GOSH_A9,2023-11-10_10h38.37.768,two_step_task_legacy,2022.2.4,Win32,60.09254252,32,learning,0,resources/alien4_norm.png,0.6,resources/alien3_norm.png,0.4,TRUE,TRUE,2,0.203713098,purple,x,0.2736,alien4,TRUE,3,0.889534419,97,0,0.6,x,0.6577,0,216,216,216,1,0.7,0.3,0.4,0.6,TRUE,,,,,,,,,,,,,,,,,,,,,,,,,,,,,,,,,
GOSH_A9,2023-11-10_10h38.37.768,two_step_task_legacy,2022.2.4,Win32,60.09254252,32,learning,0,resources/alien3_norm.png,0.4,resources/alien4_norm.png,0.6,TRUE,TRUE,2,0.043323023,purple,x,0.1857,alien4,TRUE,2,0.558439898,98,1,0.6,m,0.5921,0,217,217,217,1,0.7,0.3,0.4,0.6,FALSE,,,,,,,,,,,,,,,,,,,,,,,,,,,,,,,,,
GOSH_A9,2023-11-10_10h38.37.768,two_step_task_legacy,2022.2.4,Win32,60.09254252,32,learning,1,resources/alien1_norm.png,0.7,resources/alien2_norm.png,0.3,TRUE,TRUE,3,0.957488351,red,x,0.2852,alien1,TRUE,3,0.988332811,98,0,0.7,x,0.8837,0,218,218,218,1,0.7,0.3,0.4,0.6,FALSE,,,,,,,,,,,,,,,,,,,,,,,,,,,,,,,,,
GOSH_A9,2023-11-10_10h38.37.768,two_step_task_legacy,2022.2.4,Win32,60.09254252,32,learning,0,resources/alien3_norm.png,0.4,resources/alien4_norm.png,0.6,TRUE,TRUE,2,0.646230898,purple,x,0.2006,alien4,TRUE,2,0.442533512,99,1,0.6,m,0.7903,0,219,219,219,1,0.7,0.3,0.4,0.6,FALSE,,,,,,,,,,,,,,,,,,,,,,,,,,,,,,,,,
GOSH_A9,2023-11-10_10h38.37.768,two_step_task_legacy,2022.2.4,Win32,60.09254252,32,learning,1,resources/alien1_norm.png,0.7,resources/alien2_norm.png,0.3,TRUE,TRUE,3,0.927454498,red,x,0.2897,alien1,TRUE,2,0.597488286,100,1,0.7,x,0.7276,0,220,220,220,1,0.7,0.3,0.4,0.6,FALSE,,,,,,,,,,,,,,,,,,,,,,,,,,,,,,,,,
GOSH_A9,2023-11-10_10h38.37.768,two_step_task_legacy,2022.2.4,Win32,60.09254252,32,learning,0,resources/alien3_norm.png,0.4,resources/alien4_norm.png,0.6,TRUE,TRUE,2,0.315485852,purple,x,0.3033,alien4,TRUE,3,0.939493683,100,0,0.6,m,0.6767,0,221,221,221,1,0.7,0.3,0.4,0.6,FALSE,,,,,,,,,,,,,,,,,,,,,,,,,,,,,,,,,
GOSH_A9,2023-11-10_10h38.37.768,two_step_task_legacy,2022.2.4,Win32,60.09254252,32,learning,0,resources/alien4_norm.png,0.6,resources/alien3_norm.png,0.4,TRUE,TRUE,2,0.676572091,purple,x,0.2997,alien4,TRUE,2,0.364876748,101,1,0.6,x,0.8012,0,222,222,222,1,0.7,0.3,0.4,0.6,TRUE,,,,,,,,,,,,,,,,,,,,,,,,,,,,,,,,,
GOSH_A9,2023-11-10_10h38.37.768,two_step_task_legacy,2022.2.4,Win32,60.09254252,32,learning,0,resources/alien4_norm.png,0.6,resources/alien3_norm.png,0.4,TRUE,TRUE,2,0.503599577,purple,x,0.4167,alien4,TRUE,3,0.69988995,101,0,0.6,x,0.6707,0,223,223,223,1,0.7,0.3,0.4,0.6,TRUE,,,,,,,,,,,,,,,,,,,,,,,,,,,,,,,,,
GOSH_A9,2023-11-10_10h38.37.768,two_step_task_legacy,2022.2.4,Win32,60.09254252,32,learning,0,resources/alien3_norm.png,0.4,resources/alien4_norm.png,0.6,TRUE,TRUE,2,0.091384786,purple,x,0.2331,alien4,TRUE,3,0.860374349,101,0,0.6,m,0.5582,0,224,224,224,1,0.7,0.3,0.4,0.6,FALSE,,,,,,,,,,,,,,,,,,,,,,,,,,,,,,,,,
GOSH_A9,2023-11-10_10h38.37.768,two_step_task_legacy,2022.2.4,Win32,60.09254252,32,learning,1,resources/alien2_norm.png,0.3,resources/alien1_norm.png,0.7,TRUE,TRUE,3,0.755087782,red,x,0.2832,alien1,TRUE,2,0.615530551,102,1,0.7,m,0.9223,0,225,225,225,1,0.7,0.3,0.4,0.6,TRUE,,,,,,,,,,,,,,,,,,,,,,,,,,,,,,,,,
GOSH_A9,2023-11-10_10h38.37.768,two_step_task_legacy,2022.2.4,Win32,60.09254252,32,learning,1,resources/alien2_norm.png,0.3,resources/alien1_norm.png,0.7,TRUE,TRUE,3,0.785639833,red,x,0.2997,alien1,TRUE,2,0.465076225,103,1,0.7,m,1.3046,0,226,226,226,1,0.7,0.3,0.4,0.6,TRUE,,,,,,,,,,,,,,,,,,,,,,,,,,,,,,,,,
GOSH_A9,2023-11-10_10h38.37.768,two_step_task_legacy,2022.2.4,Win32,60.09254252,32,learning,0,resources/alien3_norm.png,0.4,resources/alien4_norm.png,0.6,TRUE,TRUE,2,0.223392311,purple,x,0.6392,alien4,TRUE,2,0.089082163,104,1,0.6,m,1.173,0,227,227,227,1,0.7,0.3,0.4,0.6,FALSE,,,,,,,,,,,,,,,,,,,,,,,,,,,,,,,,,
GOSH_A9,2023-11-10_10h38.37.768,two_step_task_legacy,2022.2.4,Win32,60.09254252,32,learning,0,resources/alien3_norm.png,0.4,resources/alien4_norm.png,0.6,TRUE,TRUE,2,0.033911723,purple,x,0.3251,alien4,TRUE,2,0.152315643,105,1,0.6,m,0.5169,0,228,228,228,1,0.7,0.3,0.4,0.6,FALSE,,,,,,,,,,,,,,,,,,,,,,,,,,,,,,,,,
GOSH_A9,2023-11-10_10h38.37.768,two_step_task_legacy,2022.2.4,Win32,60.09254252,32,learning,0,resources/alien4_norm.png,0.6,resources/alien3_norm.png,0.4,TRUE,TRUE,2,0.238853464,purple,x,0.3175,alien4,TRUE,2,0.159194374,106,1,0.6,x,0.6939,0,229,229,229,1,0.7,0.3,0.4,0.6,TRUE,,,,,,,,,,,,,,,,,,,,,,,,,,,,,,,,,
GOSH_A9,2023-11-10_10h38.37.768,two_step_task_legacy,2022.2.4,Win32,60.09254252,32,learning,0,resources/alien3_norm.png,0.4,resources/alien4_norm.png,0.6,TRUE,TRUE,2,0.312718424,purple,x,0.4489,alien4,TRUE,2,0.104000614,107,1,0.6,m,0.8628,0,230,230,230,1,0.7,0.3,0.4,0.6,FALSE,,,,,,,,,,,,,,,,,,,,,,,,,,,,,,,,,
GOSH_A9,2023-11-10_10h38.37.768,two_step_task_legacy,2022.2.4,Win32,60.09254252,32,learning,0,resources/alien3_norm.png,0.4,resources/alien4_norm.png,0.6,TRUE,TRUE,2,0.324836385,purple,x,0.3521,alien4,TRUE,2,0.346996435,108,1,0.6,m,0.6982,0,231,231,231,1,0.7,0.3,0.4,0.6,FALSE,,,,,,,,,,,,,,,,,,,,,,,,,,,,,,,,,
GOSH_A9,2023-11-10_10h38.37.768,two_step_task_legacy,2022.2.4,Win32,60.09254252,32,learning,0,resources/alien3_norm.png,0.4,resources/alien4_norm.png,0.6,TRUE,TRUE,2,0.47983604,purple,x,0.3336,alien4,TRUE,2,0.133752585,109,1,0.6,m,0.74,0,232,232,232,1,0.7,0.3,0.4,0.6,FALSE,,,,,,,,,,,,,,,,,,,,,,,,,,,,,,,,,
GOSH_A9,2023-11-10_10h38.37.768,two_step_task_legacy,2022.2.4,Win32,60.09254252,32,learning,0,resources/alien3_norm.png,0.4,resources/alien4_norm.png,0.6,TRUE,TRUE,2,0.320661431,purple,x,0.2848,alien4,TRUE,3,0.65012012,109,0,0.6,m,0.5433,0,233,233,233,1,0.7,0.3,0.4,0.6,FALSE,,,,,,,,,,,,,,,,,,,,,,,,,,,,,,,,,
GOSH_A9,2023-11-10_10h38.37.768,two_step_task_legacy,2022.2.4,Win32,60.09254252,32,learning,0,resources/alien3_norm.png,0.4,resources/alien4_norm.png,0.6,TRUE,TRUE,2,0.448629084,purple,x,0.3092,alien4,TRUE,2,0.262994956,110,1,0.6,m,0.5207,0,234,234,234,1,0.7,0.3,0.4,0.6,FALSE,,,,,,,,,,,,,,,,,,,,,,,,,,,,,,,,,
GOSH_A9,2023-11-10_10h38.37.768,two_step_task_legacy,2022.2.4,Win32,60.09254252,32,learning,0,resources/alien3_norm.png,0.4,resources/alien4_norm.png,0.6,TRUE,TRUE,2,0.161175024,purple,x,0.2253,alien4,TRUE,2,0.205234452,111,1,0.6,m,0.4621,0,235,235,235,1,0.7,0.3,0.4,0.6,FALSE,,,,,,,,,,,,,,,,,,,,,,,,,,,,,,,,,
GOSH_A9,2023-11-10_10h38.37.768,two_step_task_legacy,2022.2.4,Win32,60.09254252,32,learning,0,resources/alien4_norm.png,0.6,resources/alien3_norm.png,0.4,TRUE,TRUE,2,0.284017722,purple,x,0.2348,alien4,TRUE,2,0.151457948,112,1,0.6,x,0.7344,0,236,236,236,1,0.7,0.3,0.4,0.6,TRUE,,,,,,,,,,,,,,,,,,,,,,,,,,,,,,,,,
GOSH_A9,2023-11-10_10h38.37.768,two_step_task_legacy,2022.2.4,Win32,60.09254252,32,learning,0,resources/alien3_norm.png,0.4,resources/alien4_norm.png,0.6,TRUE,TRUE,2,0.248376169,purple,x,0.2131,alien4,TRUE,3,0.653153866,112,0,0.6,m,0.6952,0,237,237,237,1,0.7,0.3,0.4,0.6,FALSE,,,,,,,,,,,,,,,,,,,,,,,,,,,,,,,,,
GOSH_A9,2023-11-10_10h38.37.768,two_step_task_legacy,2022.2.4,Win32,60.09254252,32,learning,1,resources/alien1_norm.png,0.7,resources/alien2_norm.png,0.3,TRUE,TRUE,3,0.787010827,red,x,0.2611,alien1,TRUE,2,0.67087278,113,1,0.7,x,0.887,0,238,238,238,1,0.7,0.3,0.4,0.6,FALSE,,,,,,,,,,,,,,,,,,,,,,,,,,,,,,,,,
GOSH_A9,2023-11-10_10h38.37.768,two_step_task_legacy,2022.2.4,Win32,60.09254252,32,learning,0,resources/alien4_norm.png,0.6,resources/alien3_norm.png,0.4,TRUE,TRUE,2,0.256397621,purple,x,0.174,alien4,TRUE,2,0.16651401,114,1,0.6,x,0.7691,0,239,239,239,1,0.7,0.3,0.4,0.6,TRUE,,,,,,,,,,,,,,,,,,,,,,,,,,,,,,,,,
GOSH_A9,2023-11-10_10h38.37.768,two_step_task_legacy,2022.2.4,Win32,60.09254252,32,learning,1,resources/alien2_norm.png,0.3,resources/alien1_norm.png,0.7,TRUE,TRUE,3,0.941695881,red,x,0.2238,alien1,TRUE,3,0.834054834,114,0,0.7,m,0.6032,0,240,240,240,1,0.7,0.3,0.4,0.6,TRUE,,,,,,,,,,,,,,,,,,,,,,,,,,,,,,,,,
GOSH_A9,2023-11-10_10h38.37.768,two_step_task_legacy,2022.2.4,Win32,60.09254252,32,learning,1,resources/alien1_norm.png,0.7,resources/alien2_norm.png,0.3,TRUE,TRUE,3,0.713728973,red,x,0.2423,alien1,TRUE,2,0.241852089,115,1,0.7,x,0.6833,0,241,241,241,1,0.7,0.3,0.4,0.6,FALSE,,,,,,,,,,,,,,,,,,,,,,,,,,,,,,,,,
GOSH_A9,2023-11-10_10h38.37.768,two_step_task_legacy,2022.2.4,Win32,60.09254252,32,learning,1,resources/alien2_norm.png,0.3,resources/alien1_norm.png,0.7,TRUE,TRUE,3,0.903074434,red,x,0.2673,alien1,TRUE,3,0.796828278,115,0,0.7,m,0.6409,0,242,242,242,1,0.7,0.3,0.4,0.6,TRUE,,,,,,,,,,,,,,,,,,,,,,,,,,,,,,,,,
GOSH_A9,2023-11-10_10h38.37.768,two_step_task_legacy,2022.2.4,Win32,60.09254252,32,learning,1,resources/alien2_norm.png,0.3,resources/alien1_norm.png,0.7,TRUE,TRUE,3,0.738904663,red,x,0.5373,alien1,TRUE,2,0.193260107,116,1,0.7,m,0.5679,0,243,243,243,1,0.7,0.3,0.4,0.6,TRUE,,,,,,,,,,,,,,,,,,,,,,,,,,,,,,,,,
GOSH_A9,2023-11-10_10h38.37.768,two_step_task_legacy,2022.2.4,Win32,60.09254252,32,learning,0,resources/alien4_norm.png,0.6,resources/alien3_norm.png,0.4,TRUE,TRUE,2,0.01653475,purple,x,0.9679,alien4,TRUE,2,0.553700772,117,1,0.6,x,0.7515,0,244,244,244,1,0.7,0.3,0.4,0.6,TRUE,,,,,,,,,,,,,,,,,,,,,,,,,,,,,,,,,
GOSH_A9,2023-11-10_10h38.37.768,two_step_task_legacy,2022.2.4,Win32,60.09254252,32,learning,1,resources/alien1_norm.png,0.7,resources/alien2_norm.png,0.3,TRUE,TRUE,3,0.957375942,red,x,0.2375,alien1,TRUE,3,0.815378387,117,0,0.7,x,0.4765,0,245,245,245,1,0.7,0.3,0.4,0.6,FALSE,,,,,,,,,,,,,,,,,,,,,,,,,,,,,,,,,
GOSH_A9,2023-11-10_10h38.37.768,two_step_task_legacy,2022.2.4,Win32,60.09254252,32,learning,1,resources/alien1_norm.png,0.7,resources/alien2_norm.png,0.3,TRUE,TRUE,3,0.838980073,red,x,0.4276,alien1,TRUE,2,0.363084358,118,1,0.7,x,0.5098,0,246,246,246,1,0.7,0.3,0.4,0.6,FALSE,,,,,,,,,,,,,,,,,,,,,,,,,,,,,,,,,
GOSH_A9,2023-11-10_10h38.37.768,two_step_task_legacy,2022.2.4,Win32,60.09254252,32,learning,0,resources/alien3_norm.png,0.4,resources/alien4_norm.png,0.6,TRUE,TRUE,2,0.131943902,purple,x,0.4675,alien4,TRUE,3,0.885890797,118,0,0.6,m,0.7725,0,247,247,247,1,0.7,0.3,0.4,0.6,FALSE,,,,,,,,,,,,,,,,,,,,,,,,,,,,,,,,,
GOSH_A9,2023-11-10_10h38.37.768,two_step_task_legacy,2022.2.4,Win32,60.09254252,32,learning,0,resources/alien2_norm.png,0.3,resources/alien1_norm.png,0.7,TRUE,TRUE,3,0.629767344,red,m,0.3835,alien1,TRUE,2,0.439164901,119,1,0.7,m,2.5635,0,248,248,248,1,0.7,0.3,0.4,0.6,TRUE,,,,,,,,,,,,,,,,,,,,,,,,,,,,,,,,,
GOSH_A9,2023-11-10_10h38.37.768,two_step_task_legacy,2022.2.4,Win32,60.09254252,32,learning,0,resources/alien4_norm.png,0.6,resources/alien3_norm.png,0.4,TRUE,TRUE,2,0.040087921,purple,x,0.9404,alien4,TRUE,2,0.271328121,120,1,0.6,x,1.1617,0,249,249,249,1,0.7,0.3,0.4,0.6,TRUE,,,,,,,,,,,,,,,,,,,,,,,,,,,,,,,,,
GOSH_A9,2023-11-10_10h38.37.768,two_step_task_legacy,2022.2.4,Win32,60.09254252,32,learning,0,resources/alien3_norm.png,0.4,resources/alien4_norm.png,0.6,TRUE,TRUE,2,0.565758213,purple,x,0.4605,alien4,TRUE,2,0.238812674,121,1,0.6,m,0.8044,0,250,250,250,1,0.7,0.3,0.4,0.6,FALSE,,,,,,,,,,,,,,,,,,,,,,,,,,,,,,,,,
GOSH_A9,2023-11-10_10h38.37.768,two_step_task_legacy,2022.2.4,Win32,60.09254252,32,learning,0,resources/alien3_norm.png,0.4,resources/alien4_norm.png,0.6,TRUE,TRUE,2,0.063122957,purple,x,0.256,alien4,TRUE,3,0.98026536,121,0,0.6,m,0.645,0,251,251,251,1,0.7,0.3,0.4,0.6,FALSE,,,,,,,,,,,,,,,,,,,,,,,,,,,,,,,,,
GOSH_A9,2023-11-10_10h38.37.768,two_step_task_legacy,2022.2.4,Win32,60.09254252,32,learning,0,resources/alien4_norm.png,0.6,resources/alien3_norm.png,0.4,TRUE,TRUE,2,0.37388357,purple,x,0.2959,alien4,TRUE,2,0.395924538,122,1,0.6,x,0.5662,0,252,252,252,1,0.7,0.3,0.4,0.6,TRUE,,,,,,,,,,,,,,,,,,,,,,,,,,,,,,,,,
GOSH_A9,2023-11-10_10h38.37.768,two_step_task_legacy,2022.2.4,Win32,60.09254252,32,learning,0,resources/alien3_norm.png,0.4,resources/alien4_norm.png,0.6,TRUE,TRUE,2,0.128844512,purple,x,0.1338,alien4,TRUE,2,0.109476846,123,1,0.6,m,0.6134,0,253,253,253,1,0.7,0.3,0.4,0.6,FALSE,,,,,,,,,,,,,,,,,,,,,,,,,,,,,,,,,
GOSH_A9,2023-11-10_10h38.37.768,two_step_task_legacy,2022.2.4,Win32,60.09254252,32,learning,0,resources/alien4_norm.png,0.6,resources/alien3_norm.png,0.4,TRUE,TRUE,2,0.405684156,purple,x,0.2672,alien4,TRUE,3,0.730499477,123,0,0.6,x,0.482,0,254,254,254,1,0.7,0.3,0.4,0.6,TRUE,,,,,,,,,,,,,,,,,,,,,,,,,,,,,,,,,
GOSH_A9,2023-11-10_10h38.37.768,two_step_task_legacy,2022.2.4,Win32,60.09254252,32,learning,1,resources/alien2_norm.png,0.3,resources/alien1_norm.png,0.7,TRUE,TRUE,3,0.928063296,red,x,0.2056,alien1,TRUE,2,0.223148517,124,1,0.7,m,0.7222,0,255,255,255,1,0.7,0.3,0.4,0.6,TRUE,,,,,,,,,,,,,,,,,,,,,,,,,,,,,,,,,
GOSH_A9,2023-11-10_10h38.37.768,two_step_task_legacy,2022.2.4,Win32,60.09254252,32,learning,0,resources/alien3_norm.png,0.4,resources/alien4_norm.png,0.6,TRUE,TRUE,2,0.053363424,purple,x,0.2998,alien4,TRUE,2,0.127571058,125,1,0.6,m,0.7712,0,256,256,256,1,0.7,0.3,0.4,0.6,FALSE,,,,,,,,,,,,,,,,,,,,,,,,,,,,,,,,,
GOSH_A9,2023-11-10_10h38.37.768,two_step_task_legacy,2022.2.4,Win32,60.09254252,32,learning,0,resources/alien3_norm.png,0.4,resources/alien4_norm.png,0.6,TRUE,TRUE,2,0.213316049,purple,x,0.2564,alien4,TRUE,2,0.318709764,126,1,0.6,m,0.5009,0,257,257,257,1,0.7,0.3,0.4,0.6,FALSE,,,,,,,,,,,,,,,,,,,,,,,,,,,,,,,,,
GOSH_A9,2023-11-10_10h38.37.768,two_step_task_legacy,2022.2.4,Win32,60.09254252,32,learning,0,resources/alien4_norm.png,0.6,resources/alien3_norm.png,0.4,TRUE,TRUE,2,0.35958114,purple,x,0.2366,alien4,TRUE,3,0.643841703,126,0,0.6,x,1.3008,0,258,258,258,1,0.7,0.3,0.4,0.6,TRUE,,,,,,,,,,,,,,,,,,,,,,,,,,,,,,,,,
GOSH_A9,2023-11-10_10h38.37.768,two_step_task_legacy,2022.2.4,Win32,60.09254252,32,learning,0,resources/alien4_norm.png,0.6,resources/alien3_norm.png,0.4,TRUE,TRUE,2,0.257364955,purple,x,0.6677,alien4,TRUE,3,0.647454173,126,0,0.6,x,0.6232,0,259,259,259,1,0.7,0.3,0.4,0.6,TRUE,,,,,,,,,,,,,,,,,,,,,,,,,,,,,,,,,
GOSH_A9,2023-11-10_10h38.37.768,two_step_task_legacy,2022.2.4,Win32,60.09254252,32,learning,0,resources/alien4_norm.png,0.6,resources/alien3_norm.png,0.4,TRUE,TRUE,2,0.496091438,purple,x,0.1594,alien4,TRUE,2,0.276414229,127,1,0.6,x,0.3552,0,260,260,260,1,0.7,0.3,0.4,0.6,TRUE,,,,,,,,,,,,,,,,,,,,,,,,,,,,,,,,,
GOSH_A9,2023-11-10_10h38.37.768,two_step_task_legacy,2022.2.4,Win32,60.09254252,32,learning,0,resources/alien4_norm.png,0.6,resources/alien3_norm.png,0.4,TRUE,TRUE,2,0.627873611,purple,x,0.0177,alien4,TRUE,3,0.929139381,127,0,0.6,x,0.4576,0,261,261,261,1,0.7,0.3,0.4,0.6,TRUE,,,,,,,,,,,,,,,,,,,,,,,,,,,,,,,,,
GOSH_A9,2023-11-10_10h38.37.768,two_step_task_legacy,2022.2.4,Win32,60.09254252,32,learning,0,resources/alien3_norm.png,0.4,resources/alien4_norm.png,0.6,TRUE,TRUE,2,0.405054708,purple,x,0.4998,alien4,TRUE,2,0.36876295,128,1,0.6,m,0.6502,0,262,262,262,1,0.7,0.3,0.4,0.6,FALSE,,,,,,,,,,,,,,,,,,,,,,,,,,,,,,,,,
GOSH_A9,2023-11-10_10h38.37.768,two_step_task_legacy,2022.2.4,Win32,60.09254252,32,learning,1,resources/alien2_norm.png,0.3,resources/alien1_norm.png,0.7,TRUE,TRUE,3,0.938127612,red,x,0.62,alien1,TRUE,2,0.078754989,129,1,0.7,m,1.2676,0,263,263,263,1,0.7,0.3,0.4,0.6,TRUE,,,,,,,,,,,,,,,,,,,,,,,,,,,,,,,,,
GOSH_A9,2023-11-10_10h38.37.768,two_step_task_legacy,2022.2.4,Win32,60.09254252,32,learning,0,resources/alien3_norm.png,0.4,resources/alien4_norm.png,0.6,TRUE,TRUE,2,0.155618878,purple,x,0.6674,alien4,TRUE,3,0.734636255,129,0,0.6,m,0.6366,0,264,264,264,1,0.7,0.3,0.4,0.6,FALSE,,,,,,,,,,,,,,,,,,,,,,,,,,,,,,,,,
GOSH_A9,2023-11-10_10h38.37.768,two_step_task_legacy,2022.2.4,Win32,60.09254252,32,learning,1,resources/alien2_norm.png,0.3,resources/alien1_norm.png,0.7,TRUE,TRUE,3,0.931153471,red,x,0.3006,alien1,TRUE,2,0.151326472,130,1,0.7,m,1.403,0,265,265,265,1,0.7,0.3,0.4,0.6,TRUE,,,,,,,,,,,,,,,,,,,,,,,,,,,,,,,,,
GOSH_A9,2023-11-10_10h38.37.768,two_step_task_legacy,2022.2.4,Win32,60.09254252,32,learning,1,resources/alien1_norm.png,0.7,resources/alien2_norm.png,0.3,TRUE,TRUE,3,0.84951032,red,x,0.3247,alien1,TRUE,2,0.647034568,131,1,0.7,x,0.8629,0,266,266,266,1,0.7,0.3,0.4,0.6,FALSE,,,,,,,,,,,,,,,,,,,,,,,,,,,,,,,,,
GOSH_A9,2023-11-10_10h38.37.768,two_step_task_legacy,2022.2.4,Win32,60.09254252,32,learning,0,resources/alien3_norm.png,0.4,resources/alien4_norm.png,0.6,TRUE,TRUE,2,0.058044487,purple,x,0.2506,alien4,TRUE,2,0.46336685,132,1,0.6,m,0.7397,0,267,267,267,1,0.7,0.3,0.4,0.6,FALSE,,,,,,,,,,,,,,,,,,,,,,,,,,,,,,,,,
GOSH_A9,2023-11-10_10h38.37.768,two_step_task_legacy,2022.2.4,Win32,60.09254252,32,learning,1,resources/alien2_norm.png,0.3,resources/alien1_norm.png,0.7,TRUE,TRUE,3,0.873148639,red,x,0.2393,alien1,TRUE,3,0.930091891,132,0,0.7,m,0.5928,0,268,268,268,1,0.7,0.3,0.4,0.6,TRUE,,,,,,,,,,,,,,,,,,,,,,,,,,,,,,,,,
GOSH_A9,2023-11-10_10h38.37.768,two_step_task_legacy,2022.2.4,Win32,60.09254252,32,learning,0,resources/alien3_norm.png,0.4,resources/alien4_norm.png,0.6,TRUE,TRUE,2,0.342670846,purple,x,0.3343,alien4,TRUE,3,0.778120815,132,0,0.6,m,0.8326,0,269,269,269,1,0.7,0.3,0.4,0.6,FALSE,,,,,,,,,,,,,,,,,,,,,,,,,,,,,,,,,
GOSH_A9,2023-11-10_10h38.37.768,two_step_task_legacy,2022.2.4,Win32,60.09254252,32,learning,0,resources/alien3_norm.png,0.4,resources/alien4_norm.png,0.6,TRUE,TRUE,2,0.089022461,purple,x,0.2835,alien4,TRUE,2,0.080831024,133,1,0.6,m,0.5882,0,270,270,270,1,0.7,0.3,0.4,0.6,FALSE,,,,,,,,,,,,,,,,,,,,,,,,,,,,,,,,,
GOSH_A9,2023-11-10_10h38.37.768,two_step_task_legacy,2022.2.4,Win32,60.09254252,32,learning,0,resources/alien4_norm.png,0.6,resources/alien3_norm.png,0.4,TRUE,TRUE,2,0.563214251,purple,x,0.1929,alien4,TRUE,3,0.638885039,133,0,0.6,x,0.6449,0,271,271,271,1,0.7,0.3,0.4,0.6,TRUE,,,,,,,,,,,,,,,,,,,,,,,,,,,,,,,,,
GOSH_A9,2023-11-10_10h38.37.768,two_step_task_legacy,2022.2.4,Win32,60.09254252,32,learning,0,resources/alien4_norm.png,0.6,resources/alien3_norm.png,0.4,TRUE,TRUE,2,0.536009041,purple,x,0.2834,alien4,TRUE,2,0.006832858,134,1,0.6,x,0.5509,0,272,272,272,1,0.7,0.3,0.4,0.6,TRUE,,,,,,,,,,,,,,,,,,,,,,,,,,,,,,,,,
GOSH_A9,2023-11-10_10h38.37.768,two_step_task_legacy,2022.2.4,Win32,60.09254252,32,learning,1,resources/alien2_norm.png,0.3,resources/alien1_norm.png,0.7,TRUE,TRUE,3,0.918213175,red,x,0.3342,alien1,TRUE,2,0.023360245,135,1,0.7,m,0.5566,0,273,273,273,1,0.7,0.3,0.4,0.6,TRUE,,,,,,,,,,,,,,,,,,,,,,,,,,,,,,,,,
GOSH_A9,2023-11-10_10h38.37.768,two_step_task_legacy,2022.2.4,Win32,60.09254252,32,learning,0,resources/alien3_norm.png,0.4,resources/alien4_norm.png,0.6,TRUE,TRUE,2,0.319982975,purple,x,0.4168,alien4,TRUE,2,0.457800404,136,1,0.6,m,0.6426,0,274,274,274,1,0.7,0.3,0.4,0.6,FALSE,,,,,,,,,,,,,,,,,,,,,,,,,,,,,,,,,
GOSH_A9,2023-11-10_10h38.37.768,two_step_task_legacy,2022.2.4,Win32,60.09254252,32,learning,0,resources/alien3_norm.png,0.4,resources/alien4_norm.png,0.6,TRUE,TRUE,2,0.31255644,purple,x,0.5563,alien4,TRUE,2,0.343217069,137,1,0.6,m,0.8399,0,275,275,275,1,0.7,0.3,0.4,0.6,FALSE,,,,,,,,,,,,,,,,,,,,,,,,,,,,,,,,,
GOSH_A9,2023-11-10_10h38.37.768,two_step_task_legacy,2022.2.4,Win32,60.09254252,32,learning,1,resources/alien2_norm.png,0.3,resources/alien1_norm.png,0.7,TRUE,TRUE,3,0.721966356,red,x,0.4174,alien1,TRUE,2,0.002091042,138,1,0.7,m,1.2811,0,276,276,276,1,0.7,0.3,0.4,0.6,TRUE,,,,,,,,,,,,,,,,,,,,,,,,,,,,,,,,,
GOSH_A9,2023-11-10_10h38.37.768,two_step_task_legacy,2022.2.4,Win32,60.09254252,32,learning,0,resources/alien4_norm.png,0.6,resources/alien3_norm.png,0.4,TRUE,TRUE,2,0.305112,purple,x,0.2395,alien4,TRUE,2,0.550193281,139,1,0.6,x,0.5221,0,277,277,277,1,0.7,0.3,0.4,0.6,TRUE,,,,,,,,,,,,,,,,,,,,,,,,,,,,,,,,,
GOSH_A9,2023-11-10_10h38.37.768,two_step_task_legacy,2022.2.4,Win32,60.09254252,32,learning,0,resources/alien3_norm.png,0.4,resources/alien4_norm.png,0.6,TRUE,TRUE,2,0.629633354,purple,x,0.2669,alien4,TRUE,2,0.020423789,140,1,0.6,m,0.6098,0,278,278,278,1,0.7,0.3,0.4,0.6,FALSE,,,,,,,,,,,,,,,,,,,,,,,,,,,,,,,,,
GOSH_A9,2023-11-10_10h38.37.768,two_step_task_legacy,2022.2.4,Win32,60.09254252,32,learning,0,resources/alien3_norm.png,0.4,resources/alien4_norm.png,0.6,TRUE,TRUE,2,0.62826884,purple,x,0.2839,alien4,TRUE,2,0.158786363,141,1,0.6,m,0.4998,0,279,279,279,1,0.7,0.3,0.4,0.6,FALSE,,,,,,,,,,,,,,,,,,,,,,,,,,,,,,,,,
GOSH_A9,2023-11-10_10h38.37.768,two_step_task_legacy,2022.2.4,Win32,60.09254252,32,learning,0,resources/alien4_norm.png,0.6,resources/alien3_norm.png,0.4,TRUE,TRUE,2,0.179875809,purple,x,0.3614,alien4,TRUE,2,0.084443697,142,1,0.6,x,0.5801,0,280,280,280,1,0.7,0.3,0.4,0.6,TRUE,,,,,,,,,,,,,,,,,,,,,,,,,,,,,,,,,
GOSH_A9,2023-11-10_10h38.37.768,two_step_task_legacy,2022.2.4,Win32,60.09254252,32,learning,0,resources/alien3_norm.png,0.4,resources/alien4_norm.png,0.6,TRUE,TRUE,2,0.690675562,purple,x,0.443,alien4,TRUE,2,0.597652583,143,1,0.6,m,1.118,0,281,281,281,1,0.7,0.3,0.4,0.6,FALSE,,,,,,,,,,,,,,,,,,,,,,,,,,,,,,,,,
GOSH_A9,2023-11-10_10h38.37.768,two_step_task_legacy,2022.2.4,Win32,60.09254252,32,learning,0,resources/alien3_norm.png,0.4,resources/alien4_norm.png,0.6,TRUE,TRUE,2,0.11864462,purple,x,0.305,alien4,TRUE,3,0.70791831,143,0,0.6,m,0.7629,0,282,282,282,1,0.7,0.3,0.4,0.6,FALSE,,,,,,,,,,,,,,,,,,,,,,,,,,,,,,,,,
GOSH_A9,2023-11-10_10h38.37.768,two_step_task_legacy,2022.2.4,Win32,60.09254252,32,learning,1,resources/alien2_norm.png,0.3,resources/alien1_norm.png,0.7,TRUE,TRUE,3,0.808757829,red,x,0.5989,alien1,TRUE,2,0.006755052,144,1,0.7,m,0.5731,0,283,283,283,1,0.7,0.3,0.4,0.6,TRUE,,,,,,,,,,,,,,,,,,,,,,,,,,,,,,,,,
GOSH_A9,2023-11-10_10h38.37.768,two_step_task_legacy,2022.2.4,Win32,60.09254252,32,learning,0,resources/alien4_norm.png,0.6,resources/alien3_norm.png,0.4,TRUE,TRUE,2,0.688316285,purple,x,0.2165,alien4,TRUE,2,0.380565979,145,1,0.6,x,0.7199,0,284,284,284,1,0.7,0.3,0.4,0.6,TRUE,,,,,,,,,,,,,,,,,,,,,,,,,,,,,,,,,
GOSH_A9,2023-11-10_10h38.37.768,two_step_task_legacy,2022.2.4,Win32,60.09254252,32,learning,0,resources/alien4_norm.png,0.6,resources/alien3_norm.png,0.4,TRUE,TRUE,2,0.116970754,purple,x,0.377,alien4,TRUE,2,0.294721391,146,1,0.6,x,0.5232,0,285,285,285,1,0.7,0.3,0.4,0.6,TRUE,,,,,,,,,,,,,,,,,,,,,,,,,,,,,,,,,
GOSH_A9,2023-11-10_10h38.37.768,two_step_task_legacy,2022.2.4,Win32,60.09254252,32,learning,0,resources/alien3_norm.png,0.4,resources/alien4_norm.png,0.6,TRUE,TRUE,2,0.300662649,purple,x,0.4555,alien4,TRUE,2,0.535639472,147,1,0.6,m,0.5737,0,286,286,286,1,0.7,0.3,0.4,0.6,FALSE,,,,,,,,,,,,,,,,,,,,,,,,,,,,,,,,,
GOSH_A9,2023-11-10_10h38.37.768,two_step_task_legacy,2022.2.4,Win32,60.09254252,32,learning,0,resources/alien3_norm.png,0.4,resources/alien4_norm.png,0.6,TRUE,TRUE,2,0.519267112,purple,x,0.4167,alien4,TRUE,2,0.50848145,148,1,0.6,m,0.5539,0,287,287,287,1,0.7,0.3,0.4,0.6,FALSE,,,,,,,,,,,,,,,,,,,,,,,,,,,,,,,,,
GOSH_A9,2023-11-10_10h38.37.768,two_step_task_legacy,2022.2.4,Win32,60.09254252,32,learning,0,resources/alien4_norm.png,0.6,resources/alien3_norm.png,0.4,TRUE,TRUE,2,0.479074536,purple,x,0.2933,alien4,TRUE,2,0.211633893,149,1,0.6,x,0.5468,0,288,288,288,1,0.7,0.3,0.4,0.6,TRUE,,,,,,,,,,,,,,,,,,,,,,,,,,,,,,,,,
GOSH_A9,2023-11-10_10h38.37.768,two_step_task_legacy,2022.2.4,Win32,60.09254252,32,learning,0,resources/alien4_norm.png,0.6,resources/alien3_norm.png,0.4,TRUE,TRUE,2,0.109291824,purple,x,0.2545,alien4,TRUE,3,0.806468593,149,0,0.6,x,0.55,0,289,289,289,1,0.7,0.3,0.4,0.6,TRUE,,,,,,,,,,,,,,,,,,,,,,,,,,,,,,,,,
