participant,date,expName,psychopyVersion,OS,frameRate,payoff_list,phase,rare_transition,left_alien,left_probabilty,right_alien,right_probabilty,select_sp,show_alien,rocket_trans,rand_sp,planet,key_resp_exp.keys,key_resp_exp.rt,chosen_alien,select_alien,transmoney,rand_money,totalgold,trialgain,probs,key_resp_exp_alien.keys,key_resp_exp_alien.rt,loop_exp.thisRepN,loop_exp.thisTrialN,loop_exp.thisN,loop_exp.thisIndex,loop_exp.ran,p1,p2,p3,p4,flip_sides,static_probability_left,static_probability_right,key_resp_probe.keys,key_resp_probe.rt,accuracy,probe_loop.thisRepN,probe_loop.thisTrialN,probe_loop.thisN,probe_loop.thisIndex,probe_loop.ran,probe_la,probe_ra,key_resp.keys,key_resp.rt,slider.response,slider.rt,post_loop.thisRepN,post_loop.thisTrialN,post_loop.thisN,post_loop.thisIndex,post_loop.ran,text_up,pos_text_up,text_down,pos_img_left_up,left_up_img,right_up_img,left_down_img_1,left_down_img_2,right_down_img_1,right_down_img_2,size,show_slider
GOSH_A10,2023-11-10_10h40.56.593,two_step_task_legacy,2022.2.4,Win32,59.35774915,,,,,,,,,,,,,,,,,,,,,,,,,,,,,,,,,,,,,,,,,,,,,,,,,,,,,,,,,,,,,,,,,,
GOSH_A10,2023-11-10_10h40.56.593,two_step_task_legacy,2022.2.4,Win32,59.35774915,,,,,,,,,,,,,,,,,,,,,,,,,,,,,,,,,,,,,,,,,,,,,,,,,,,,,,,,,,,,,,,,,,
GOSH_A10,2023-11-10_10h40.56.593,two_step_task_legacy,2022.2.4,Win32,59.35774915,,,,,,,,,,,,,,,,,,,,,,,,,,,,,,,,,,,,,,,,,,,,,,,,,,,,,,,,,,,,,,,,,,
GOSH_A10,2023-11-10_10h40.56.593,two_step_task_legacy,2022.2.4,Win32,59.35774915,,,,,,,,,,,,,,,,,,,,,,,,,,,,,,,,,,,,,,,,,,,,,,,,,,,,,,,,,,,,,,,,,,
GOSH_A10,2023-11-10_10h40.56.593,two_step_task_legacy,2022.2.4,Win32,59.35774915,,,,,,,,,,,,,,,,,,,,,,,,,,,,,,,,,,,,,,,,,,,,,,,,,,,,,,,,,,,,,,,,,,
GOSH_A10,2023-11-10_10h40.56.593,two_step_task_legacy,2022.2.4,Win32,59.35774915,,,,,,,,,,,,,,,,,,,,,,,,,,,,,,,,,,,,,,,,,,,,,,,,,,,,,,,,,,,,,,,,,,
GOSH_A10,2023-11-10_10h40.56.593,two_step_task_legacy,2022.2.4,Win32,59.35774915,,,,,,,,,,,,,,,,,,,,,,,,,,,,,,,,,,,,,,,,,,,,,,,,,,,,,,,,,,,,,,,,,,
GOSH_A10,2023-11-10_10h40.56.593,two_step_task_legacy,2022.2.4,Win32,59.35774915,,,,,,,,,,,,,,,,,,,,,,,,,,,,,,,,,,,,,,,,,,,,,,,,,,,,,,,,,,,,,,,,,,
GOSH_A10,2023-11-10_10h40.56.593,two_step_task_legacy,2022.2.4,Win32,59.35774915,,,,,,,,,,,,,,,,,,,,,,,,,,,,,,,,,,,,,,,,,,,,,,,,,,,,,,,,,,,,,,,,,,
GOSH_A10,2023-11-10_10h40.56.593,two_step_task_legacy,2022.2.4,Win32,59.35774915,,,,,,,,,,,,,,,,,,,,,,,,,,,,,,,,,,,,,,,,,,,,,,,,,,,,,,,,,,,,,,,,,,
GOSH_A10,2023-11-10_10h40.56.593,two_step_task_legacy,2022.2.4,Win32,59.35774915,,,,,,,,,,,,,,,,,,,,,,,,,,,,,,,,,,,,,,,,,,,,,,,,,,,,,,,,,,,,,,,,,,
GOSH_A10,2023-11-10_10h40.56.593,two_step_task_legacy,2022.2.4,Win32,59.35774915,4,learning,0,resources/alien1_norm.png,0.592919234,resources/alien2_norm.png,0.725900905,TRUE,TRUE,3,0.42973806,red,m,1.0424,alien2,TRUE,2,0.37788082,1,1,0.725900905,m,1.2294,0,0,0,0,1,0.592919234,0.725900905,0.443858228,0.27950747,FALSE,,,,,,,,,,,,,,,,,,,,,,,,,,,,,,,,,
GOSH_A10,2023-11-10_10h40.56.593,two_step_task_legacy,2022.2.4,Win32,59.35774915,4,learning,0,resources/alien1_norm.png,0.59679033,resources/alien2_norm.png,0.744384228,TRUE,TRUE,3,0.632836303,red,m,0.3999,alien2,TRUE,2,0.497328131,2,1,0.744384228,m,0.5033,0,1,1,1,1,0.59679033,0.744384228,0.45423091,0.295972889,FALSE,,,,,,,,,,,,,,,,,,,,,,,,,,,,,,,,,
GOSH_A10,2023-11-10_10h40.56.593,two_step_task_legacy,2022.2.4,Win32,59.35774915,4,learning,1,resources/alien3_norm.png,0.455634511,resources/alien4_norm.png,0.31700386,TRUE,TRUE,2,0.98387422,purple,m,0.2602,alien3,TRUE,3,0.925797631,2,0,0.455634511,x,1.6103,0,2,2,2,1,0.60177345,0.733574025,0.455634511,0.31700386,FALSE,,,,,,,,,,,,,,,,,,,,,,,,,,,,,,,,,
GOSH_A10,2023-11-10_10h40.56.593,two_step_task_legacy,2022.2.4,Win32,59.35774915,4,learning,0,resources/alien1_norm.png,0.575786997,resources/alien2_norm.png,0.736493304,TRUE,TRUE,3,0.217175857,red,m,0.3884,alien2,TRUE,2,0.284091779,3,1,0.736493304,m,0.4764,0,3,3,3,1,0.575786997,0.736493304,0.471841934,0.31795339,FALSE,,,,,,,,,,,,,,,,,,,,,,,,,,,,,,,,,
GOSH_A10,2023-11-10_10h40.56.593,two_step_task_legacy,2022.2.4,Win32,59.35774915,4,learning,1,resources/alien4_norm.png,0.314743689,resources/alien3_norm.png,0.442864037,TRUE,TRUE,2,0.814367257,purple,m,0.3947,alien4,TRUE,2,0.009005619,4,1,0.314743689,x,1.457,0,4,4,4,1,0.567847603,0.732422245,0.442864037,0.314743689,TRUE,,,,,,,,,,,,,,,,,,,,,,,,,,,,,,,,,
GOSH_A10,2023-11-10_10h40.56.593,two_step_task_legacy,2022.2.4,Win32,59.35774915,4,learning,0,resources/alien1_norm.png,0.613520007,resources/alien2_norm.png,0.719024184,TRUE,TRUE,3,0.055519683,red,m,0.6043,alien2,TRUE,2,0.494321042,5,1,0.719024184,m,0.7768,0,5,5,5,1,0.613520007,0.719024184,0.425542419,0.331932433,FALSE,,,,,,,,,,,,,,,,,,,,,,,,,,,,,,,,,
GOSH_A10,2023-11-10_10h40.56.593,two_step_task_legacy,2022.2.4,Win32,59.35774915,4,learning,0,resources/alien2_norm.png,0.703346131,resources/alien1_norm.png,0.646413289,TRUE,TRUE,3,0.005954557,red,m,0.4016,alien2,TRUE,2,0.52475774,6,1,0.703346131,x,0.9839,0,6,6,6,1,0.646413289,0.703346131,0.45882479,0.335203637,TRUE,,,,,,,,,,,,,,,,,,,,,,,,,,,,,,,,,
GOSH_A10,2023-11-10_10h40.56.593,two_step_task_legacy,2022.2.4,Win32,59.35774915,4,learning,0,resources/alien1_norm.png,0.656173784,resources/alien2_norm.png,0.720597765,TRUE,TRUE,3,0.343266942,red,m,0.3624,alien2,TRUE,3,0.932372003,6,0,0.720597765,m,1.0234,0,7,7,7,1,0.656173784,0.720597765,0.470030307,0.317344228,FALSE,,,,,,,,,,,,,,,,,,,,,,,,,,,,,,,,,
GOSH_A10,2023-11-10_10h40.56.593,two_step_task_legacy,2022.2.4,Win32,59.35774915,4,learning,0,resources/alien1_norm.png,0.679642094,resources/alien2_norm.png,0.740934325,TRUE,TRUE,3,0.451056575,red,m,0.4376,alien2,TRUE,2,0.739564434,7,1,0.740934325,m,0.5708,0,8,8,8,1,0.679642094,0.740934325,0.484620776,0.274606094,FALSE,,,,,,,,,,,,,,,,,,,,,,,,,,,,,,,,,
GOSH_A10,2023-11-10_10h40.56.593,two_step_task_legacy,2022.2.4,Win32,59.35774915,4,learning,0,resources/alien2_norm.png,0.689489059,resources/alien1_norm.png,0.688180407,TRUE,TRUE,3,0.494093619,red,m,0.3668,alien2,TRUE,2,0.025017353,8,1,0.689489059,x,0.8793,0,9,9,9,1,0.688180407,0.689489059,0.493984152,0.279361174,TRUE,,,,,,,,,,,,,,,,,,,,,,,,,,,,,,,,,
GOSH_A10,2023-11-10_10h40.56.593,two_step_task_legacy,2022.2.4,Win32,59.35774915,4,learning,0,resources/alien2_norm.png,0.672474435,resources/alien1_norm.png,0.722256697,TRUE,TRUE,3,0.018084107,red,m,0.3552,alien2,TRUE,2,0.156286975,9,1,0.672474435,x,0.6842,0,10,10,10,1,0.722256697,0.672474435,0.483038561,0.282942862,TRUE,,,,,,,,,,,,,,,,,,,,,,,,,,,,,,,,,
GOSH_A10,2023-11-10_10h40.56.593,two_step_task_legacy,2022.2.4,Win32,59.35774915,4,learning,0,resources/alien1_norm.png,0.684969653,resources/alien2_norm.png,0.692623887,TRUE,TRUE,3,0.333745536,red,m,0.2962,alien2,TRUE,2,0.600891458,10,1,0.692623887,m,0.6159,0,11,11,11,1,0.684969653,0.692623887,0.510853538,0.259019373,FALSE,,,,,,,,,,,,,,,,,,,,,,,,,,,,,,,,,
GOSH_A10,2023-11-10_10h40.56.593,two_step_task_legacy,2022.2.4,Win32,59.35774915,4,learning,0,resources/alien1_norm.png,0.659633046,resources/alien2_norm.png,0.715817289,TRUE,TRUE,3,0.018557403,red,m,0.5004,alien2,TRUE,3,0.94936078,10,0,0.715817289,m,0.7371,0,12,12,12,1,0.659633046,0.715817289,0.479761531,0.255717844,FALSE,,,,,,,,,,,,,,,,,,,,,,,,,,,,,,,,,
GOSH_A10,2023-11-10_10h40.56.593,two_step_task_legacy,2022.2.4,Win32,59.35774915,4,learning,0,resources/alien1_norm.png,0.640778901,resources/alien2_norm.png,0.746070273,TRUE,TRUE,3,0.686094921,red,m,0.2582,alien2,TRUE,2,0.639227509,11,1,0.746070273,m,0.536,0,13,13,13,1,0.640778901,0.746070273,0.486310925,0.298984932,FALSE,,,,,,,,,,,,,,,,,,,,,,,,,,,,,,,,,
GOSH_A10,2023-11-10_10h40.56.593,two_step_task_legacy,2022.2.4,Win32,59.35774915,4,learning,0,resources/alien1_norm.png,0.609843847,resources/alien2_norm.png,0.745244975,TRUE,TRUE,3,0.474575097,red,m,0.3155,alien2,TRUE,2,0.111221525,12,1,0.745244975,m,0.5668,0,14,14,14,1,0.609843847,0.745244975,0.483221717,0.292136448,FALSE,,,,,,,,,,,,,,,,,,,,,,,,,,,,,,,,,
GOSH_A10,2023-11-10_10h40.56.593,two_step_task_legacy,2022.2.4,Win32,59.35774915,4,learning,1,resources/alien3_norm.png,0.475561931,resources/alien4_norm.png,0.315615459,TRUE,TRUE,2,0.768782333,purple,m,0.3399,alien4,TRUE,2,0.122065399,13,1,0.315615459,m,1.3282,0,15,15,15,1,0.647958318,0.742194192,0.475561931,0.315615459,FALSE,,,,,,,,,,,,,,,,,,,,,,,,,,,,,,,,,
GOSH_A10,2023-11-10_10h40.56.593,two_step_task_legacy,2022.2.4,Win32,59.35774915,4,learning,0,resources/alien2_norm.png,0.723966215,resources/alien1_norm.png,0.645843171,TRUE,TRUE,3,0.140936017,red,m,0.3438,alien2,TRUE,2,0.655174567,14,1,0.723966215,x,0.6221,0,16,16,16,1,0.645843171,0.723966215,0.453043104,0.348756417,TRUE,,,,,,,,,,,,,,,,,,,,,,,,,,,,,,,,,
GOSH_A10,2023-11-10_10h40.56.593,two_step_task_legacy,2022.2.4,Win32,59.35774915,4,learning,0,resources/alien1_norm.png,0.692166841,resources/alien2_norm.png,0.722635815,TRUE,TRUE,3,0.476761219,red,m,0.2855,alien2,TRUE,2,0.34469563,15,1,0.722635815,m,0.6502,0,17,17,17,1,0.692166841,0.722635815,0.463953484,0.34175623,FALSE,,,,,,,,,,,,,,,,,,,,,,,,,,,,,,,,,
GOSH_A10,2023-11-10_10h40.56.593,two_step_task_legacy,2022.2.4,Win32,59.35774915,4,learning,0,resources/alien2_norm.png,0.731280491,resources/alien1_norm.png,0.705363788,TRUE,TRUE,3,0.41897348,red,m,0.5342,alien2,TRUE,2,0.202822566,16,1,0.731280491,x,0.637,0,18,18,18,1,0.705363788,0.731280491,0.44983954,0.361794708,TRUE,,,,,,,,,,,,,,,,,,,,,,,,,,,,,,,,,
GOSH_A10,2023-11-10_10h40.56.593,two_step_task_legacy,2022.2.4,Win32,59.35774915,4,learning,0,resources/alien2_norm.png,0.731469643,resources/alien1_norm.png,0.638524244,TRUE,TRUE,3,0.291909107,red,m,0.304,alien2,TRUE,2,0.126421493,17,1,0.731469643,x,0.5,0,19,19,19,1,0.638524244,0.731469643,0.432081966,0.373358192,TRUE,,,,,,,,,,,,,,,,,,,,,,,,,,,,,,,,,
GOSH_A10,2023-11-10_10h40.56.593,two_step_task_legacy,2022.2.4,Win32,59.35774915,4,learning,1,resources/alien3_norm.png,0.440889844,resources/alien4_norm.png,0.370049194,TRUE,TRUE,2,0.790453747,purple,m,0.3466,alien4,TRUE,2,0.274748763,18,1,0.370049194,m,0.9896,0,20,20,20,1,0.6317315,0.722503558,0.440889844,0.370049194,FALSE,,,,,,,,,,,,,,,,,,,,,,,,,,,,,,,,,
GOSH_A10,2023-11-10_10h40.56.593,two_step_task_legacy,2022.2.4,Win32,59.35774915,4,learning,0,resources/alien1_norm.png,0.644665474,resources/alien2_norm.png,0.721895684,TRUE,TRUE,3,0.017018978,red,m,1.238,alien2,TRUE,3,0.862562969,18,0,0.721895684,m,0.7219,0,21,21,21,1,0.644665474,0.721895684,0.444949016,0.385190721,FALSE,,,,,,,,,,,,,,,,,,,,,,,,,,,,,,,,,
GOSH_A10,2023-11-10_10h40.56.593,two_step_task_legacy,2022.2.4,Win32,59.35774915,4,learning,0,resources/alien2_norm.png,0.705702366,resources/alien1_norm.png,0.666624831,TRUE,TRUE,3,0.419360602,red,m,0.2551,alien2,TRUE,2,0.030537807,19,1,0.705702366,x,0.5729,0,22,22,22,1,0.666624831,0.705702366,0.41870989,0.352113387,TRUE,,,,,,,,,,,,,,,,,,,,,,,,,,,,,,,,,
GOSH_A10,2023-11-10_10h40.56.593,two_step_task_legacy,2022.2.4,Win32,59.35774915,4,learning,1,resources/alien3_norm.png,0.465073071,resources/alien4_norm.png,0.307119567,TRUE,TRUE,2,0.924504697,purple,m,0.3729,alien4,TRUE,2,0.09216821,20,1,0.307119567,m,0.5235,0,23,23,23,1,0.664096591,0.678602803,0.465073071,0.307119567,FALSE,,,,,,,,,,,,,,,,,,,,,,,,,,,,,,,,,
GOSH_A10,2023-11-10_10h40.56.593,two_step_task_legacy,2022.2.4,Win32,59.35774915,4,learning,0,resources/alien1_norm.png,0.680750687,resources/alien2_norm.png,0.666643436,TRUE,TRUE,3,0.452774827,red,m,0.2771,alien2,TRUE,2,0.379496458,21,1,0.666643436,m,0.5111,0,24,24,24,1,0.680750687,0.666643436,0.491099525,0.327636045,FALSE,,,,,,,,,,,,,,,,,,,,,,,,,,,,,,,,,
GOSH_A10,2023-11-10_10h40.56.593,two_step_task_legacy,2022.2.4,Win32,59.35774915,4,learning,0,resources/alien2_norm.png,0.678938875,resources/alien1_norm.png,0.721158618,TRUE,TRUE,3,0.037682546,red,m,0.2558,alien2,TRUE,3,0.92467648,21,0,0.678938875,x,0.5376,0,25,25,25,1,0.721158618,0.678938875,0.515332064,0.339488743,TRUE,,,,,,,,,,,,,,,,,,,,,,,,,,,,,,,,,
GOSH_A10,2023-11-10_10h40.56.593,two_step_task_legacy,2022.2.4,Win32,59.35774915,4,learning,1,resources/alien3_norm.png,0.536516343,resources/alien4_norm.png,0.306057792,TRUE,TRUE,2,0.706016698,purple,m,0.0643,alien4,TRUE,3,0.99985202,21,0,0.306057792,m,0.6169,0,26,26,26,1,0.726141219,0.688257877,0.536516343,0.306057792,FALSE,,,,,,,,,,,,,,,,,,,,,,,,,,,,,,,,,
GOSH_A10,2023-11-10_10h40.56.593,two_step_task_legacy,2022.2.4,Win32,59.35774915,4,learning,0,resources/alien2_norm.png,0.708654251,resources/alien1_norm.png,0.73348975,TRUE,TRUE,3,0.502235269,red,m,0.3508,alien2,TRUE,3,0.846748311,21,0,0.708654251,x,0.499,0,27,27,27,1,0.73348975,0.708654251,0.586460321,0.324762577,TRUE,,,,,,,,,,,,,,,,,,,,,,,,,,,,,,,,,
GOSH_A10,2023-11-10_10h40.56.593,two_step_task_legacy,2022.2.4,Win32,59.35774915,4,learning,0,resources/alien4_norm.png,0.324394061,resources/alien3_norm.png,0.560037831,TRUE,TRUE,2,0.52693127,purple,x,0.2361,alien4,TRUE,2,0.012403531,22,1,0.324394061,x,0.8861,0,28,28,28,1,0.741945791,0.695447607,0.560037831,0.324394061,TRUE,,,,,,,,,,,,,,,,,,,,,,,,,,,,,,,,,
GOSH_A10,2023-11-10_10h40.56.593,two_step_task_legacy,2022.2.4,Win32,59.35774915,4,learning,0,resources/alien4_norm.png,0.324567173,resources/alien3_norm.png,0.536509411,TRUE,TRUE,2,0.048991148,purple,x,0.2299,alien4,TRUE,2,0.08534993,23,1,0.324567173,x,0.5067,0,29,29,29,1,0.741235567,0.647184722,0.536509411,0.324567173,TRUE,,,,,,,,,,,,,,,,,,,,,,,,,,,,,,,,,
GOSH_A10,2023-11-10_10h40.56.593,two_step_task_legacy,2022.2.4,Win32,59.35774915,4,learning,0,resources/alien3_norm.png,0.531370322,resources/alien4_norm.png,0.374347067,TRUE,TRUE,2,0.241021889,purple,x,0.2606,alien4,TRUE,3,0.929262372,23,0,0.374347067,m,0.654,0,30,30,30,1,0.711120899,0.682287617,0.531370322,0.374347067,FALSE,,,,,,,,,,,,,,,,,,,,,,,,,,,,,,,,,
GOSH_A10,2023-11-10_10h40.56.593,two_step_task_legacy,2022.2.4,Win32,59.35774915,4,learning,0,resources/alien3_norm.png,0.531256282,resources/alien4_norm.png,0.366194808,TRUE,TRUE,2,0.311331943,purple,x,0.3342,alien4,TRUE,3,0.440753553,23,0,0.366194808,m,0.5132,0,31,31,31,1,0.703930664,0.670612165,0.531256282,0.366194808,FALSE,,,,,,,,,,,,,,,,,,,,,,,,,,,,,,,,,
GOSH_A10,2023-11-10_10h40.56.593,two_step_task_legacy,2022.2.4,Win32,59.35774915,4,learning,1,resources/alien4_norm.png,0.386285095,resources/alien3_norm.png,0.520215803,TRUE,TRUE,2,0.714509129,purple,m,0.2321,alien4,TRUE,3,0.69525319,23,0,0.386285095,x,0.821,0,32,32,32,1,0.747483385,0.676785204,0.520215803,0.386285095,TRUE,,,,,,,,,,,,,,,,,,,,,,,,,,,,,,,,,
GOSH_A10,2023-11-10_10h40.56.593,two_step_task_legacy,2022.2.4,Win32,59.35774915,4,learning,0,resources/alien1_norm.png,0.74387237,resources/alien2_norm.png,0.641874978,TRUE,TRUE,3,0.173924586,red,m,0.3444,alien2,TRUE,3,0.7735254,23,0,0.641874978,m,0.4618,0,33,33,33,1,0.74387237,0.641874978,0.524958272,0.407380993,FALSE,,,,,,,,,,,,,,,,,,,,,,,,,,,,,,,,,
GOSH_A10,2023-11-10_10h40.56.593,two_step_task_legacy,2022.2.4,Win32,59.35774915,4,learning,0,resources/alien3_norm.png,0.501933636,resources/alien4_norm.png,0.430053027,TRUE,TRUE,2,0.065649507,purple,x,0.2235,alien3,TRUE,3,0.628853495,23,0,0.501933636,x,0.7366,0,34,34,34,1,0.73213969,0.647869521,0.501933636,0.430053027,FALSE,,,,,,,,,,,,,,,,,,,,,,,,,,,,,,,,,
GOSH_A10,2023-11-10_10h40.56.593,two_step_task_legacy,2022.2.4,Win32,59.35774915,4,learning,1,resources/alien1_norm.png,0.735960532,resources/alien2_norm.png,0.661804792,TRUE,TRUE,3,0.926996751,red,x,0.0663,alien2,TRUE,3,0.729553576,23,0,0.661804792,m,1.1227,0,35,35,35,1,0.735960532,0.661804792,0.485008195,0.408820591,FALSE,,,,,,,,,,,,,,,,,,,,,,,,,,,,,,,,,
GOSH_A10,2023-11-10_10h40.56.593,two_step_task_legacy,2022.2.4,Win32,59.35774915,4,learning,1,resources/alien2_norm.png,0.677064408,resources/alien1_norm.png,0.729661989,TRUE,TRUE,3,0.871005361,red,x,0.233,alien1,TRUE,2,0.697479467,24,1,0.729661989,m,0.9899,0,36,36,36,1,0.729661989,0.677064408,0.465983699,0.402459854,TRUE,,,,,,,,,,,,,,,,,,,,,,,,,,,,,,,,,
GOSH_A10,2023-11-10_10h40.56.593,two_step_task_legacy,2022.2.4,Win32,59.35774915,4,learning,0,resources/alien3_norm.png,0.509954334,resources/alien4_norm.png,0.406162253,TRUE,TRUE,2,0.297112957,purple,x,0.3057,alien3,TRUE,2,0.130586728,25,1,0.509954334,x,1.0078,0,37,37,37,1,0.707923169,0.652538123,0.509954334,0.406162253,FALSE,,,,,,,,,,,,,,,,,,,,,,,,,,,,,,,,,
GOSH_A10,2023-11-10_10h40.56.593,two_step_task_legacy,2022.2.4,Win32,59.35774915,4,learning,1,resources/alien2_norm.png,0.673066329,resources/alien1_norm.png,0.694382959,TRUE,TRUE,3,0.843311754,red,x,0.2863,alien1,TRUE,3,0.941613558,25,0,0.694382959,m,0.7707,0,38,38,38,1,0.694382959,0.673066329,0.53675196,0.433014543,TRUE,,,,,,,,,,,,,,,,,,,,,,,,,,,,,,,,,
GOSH_A10,2023-11-10_10h40.56.593,two_step_task_legacy,2022.2.4,Win32,59.35774915,4,learning,1,resources/alien1_norm.png,0.686824957,resources/alien2_norm.png,0.662671924,TRUE,TRUE,3,0.720169022,red,x,0.0339,alien1,TRUE,2,0.652519814,26,1,0.686824957,x,0.9453,0,39,39,39,1,0.686824957,0.662671924,0.535677589,0.456735874,FALSE,,,,,,,,,,,,,,,,,,,,,,,,,,,,,,,,,
GOSH_A10,2023-11-10_10h40.56.593,two_step_task_legacy,2022.2.4,Win32,59.35774915,4,learning,1,resources/alien3_norm.png,0.514353351,resources/alien4_norm.png,0.444802595,TRUE,TRUE,2,0.955782523,purple,m,0.3008,alien3,TRUE,3,0.779703209,26,0,0.514353351,x,0.9224,0,40,40,40,1,0.701252715,0.683582687,0.514353351,0.444802595,FALSE,,,,,,,,,,,,,,,,,,,,,,,,,,,,,,,,,
GOSH_A10,2023-11-10_10h40.56.593,two_step_task_legacy,2022.2.4,Win32,59.35774915,4,learning,0,resources/alien1_norm.png,0.735883559,resources/alien2_norm.png,0.659710527,TRUE,TRUE,3,0.202055455,red,m,0.2841,alien1,TRUE,2,0.627507368,27,1,0.735883559,x,0.7944,0,41,41,41,1,0.735883559,0.659710527,0.529381359,0.474099865,FALSE,,,,,,,,,,,,,,,,,,,,,,,,,,,,,,,,,
GOSH_A10,2023-11-10_10h40.56.593,two_step_task_legacy,2022.2.4,Win32,59.35774915,4,learning,0,resources/alien2_norm.png,0.656265655,resources/alien1_norm.png,0.698407408,TRUE,TRUE,3,0.509428152,red,m,0.2647,alien1,TRUE,2,0.043493171,28,1,0.698407408,m,0.4519,0,42,42,42,1,0.698407408,0.656265655,0.569051894,0.499578503,TRUE,,,,,,,,,,,,,,,,,,,,,,,,,,,,,,,,,
GOSH_A10,2023-11-10_10h40.56.593,two_step_task_legacy,2022.2.4,Win32,59.35774915,4,learning,0,resources/alien3_norm.png,0.558922212,resources/alien4_norm.png,0.517139904,TRUE,TRUE,2,0.618105422,purple,x,0.2003,alien4,TRUE,2,0.477663271,29,1,0.517139904,m,0.5638,0,43,43,43,1,0.7442163,0.635050852,0.558922212,0.517139904,FALSE,,,,,,,,,,,,,,,,,,,,,,,,,,,,,,,,,
GOSH_A10,2023-11-10_10h40.56.593,two_step_task_legacy,2022.2.4,Win32,59.35774915,4,learning,0,resources/alien1_norm.png,0.747567615,resources/alien2_norm.png,0.608699053,TRUE,TRUE,3,0.342640364,red,m,0.221,alien1,TRUE,3,0.757266035,29,0,0.747567615,x,0.7112,0,44,44,44,1,0.747567615,0.608699053,0.608414695,0.563824608,FALSE,,,,,,,,,,,,,,,,,,,,,,,,,,,,,,,,,
GOSH_A10,2023-11-10_10h40.56.593,two_step_task_legacy,2022.2.4,Win32,59.35774915,4,learning,0,resources/alien3_norm.png,0.592031585,resources/alien4_norm.png,0.577261292,TRUE,TRUE,2,0.430052515,purple,x,0.1926,alien4,TRUE,3,0.770157745,29,0,0.577261292,m,1.0147,0,45,45,45,1,0.732850337,0.616463301,0.592031585,0.577261292,FALSE,,,,,,,,,,,,,,,,,,,,,,,,,,,,,,,,,
GOSH_A10,2023-11-10_10h40.56.593,two_step_task_legacy,2022.2.4,Win32,59.35774915,4,learning,1,resources/alien2_norm.png,0.648648698,resources/alien1_norm.png,0.715828642,TRUE,TRUE,3,0.761061122,red,x,0.2478,alien2,TRUE,2,0.160756014,30,1,0.648648698,x,0.4,0,46,46,46,1,0.715828642,0.648648698,0.586579464,0.616425469,TRUE,,,,,,,,,,,,,,,,,,,,,,,,,,,,,,,,,
GOSH_A10,2023-11-10_10h40.56.593,two_step_task_legacy,2022.2.4,Win32,59.35774915,4,learning,1,resources/alien2_norm.png,0.648684771,resources/alien1_norm.png,0.701654265,TRUE,TRUE,3,0.931970122,red,x,0.2239,alien1,TRUE,2,0.36092825,31,1,0.701654265,m,0.9132,0,47,47,47,1,0.701654265,0.648684771,0.570981347,0.613264448,TRUE,,,,,,,,,,,,,,,,,,,,,,,,,,,,,,,,,
GOSH_A10,2023-11-10_10h40.56.593,two_step_task_legacy,2022.2.4,Win32,59.35774915,4,learning,0,resources/alien3_norm.png,0.623729858,resources/alien4_norm.png,0.633249326,TRUE,TRUE,2,0.616716168,purple,x,0.2497,alien3,TRUE,2,0.065938928,32,1,0.623729858,x,0.8562,0,48,48,48,1,0.732315949,0.628861012,0.623729858,0.633249326,FALSE,,,,,,,,,,,,,,,,,,,,,,,,,,,,,,,,,
GOSH_A10,2023-11-10_10h40.56.593,two_step_task_legacy,2022.2.4,Win32,59.35774915,4,learning,1,resources/alien1_norm.png,0.743730679,resources/alien2_norm.png,0.568101573,TRUE,TRUE,3,0.750908768,red,x,0.2454,alien1,TRUE,3,0.813357473,32,0,0.743730679,x,0.8826,0,49,49,49,1,0.743730679,0.568101573,0.63551621,0.647257539,FALSE,,,,,,,,,,,,,,,,,,,,,,,,,,,,,,,,,
GOSH_A10,2023-11-10_10h40.56.593,two_step_task_legacy,2022.2.4,Win32,59.35774915,4,learning,1,resources/alien2_norm.png,0.572548826,resources/alien1_norm.png,0.742405846,TRUE,TRUE,3,0.908696767,red,x,0.5382,alien1,TRUE,2,0.669475267,33,1,0.742405846,m,0.8377,0,50,50,50,1,0.742405846,0.572548826,0.591204146,0.709977629,TRUE,,,,,,,,,,,,,,,,,,,,,,,,,,,,,,,,,
GOSH_A10,2023-11-10_10h40.56.593,two_step_task_legacy,2022.2.4,Win32,59.35774915,4,learning,0,resources/alien4_norm.png,0.744945783,resources/alien3_norm.png,0.575730319,TRUE,TRUE,2,0.130721257,purple,x,0.2561,alien3,TRUE,2,0.446847435,34,1,0.575730319,m,1.1335,0,51,51,51,1,0.731656858,0.573059605,0.575730319,0.744945783,TRUE,,,,,,,,,,,,,,,,,,,,,,,,,,,,,,,,,
GOSH_A10,2023-11-10_10h40.56.593,two_step_task_legacy,2022.2.4,Win32,59.35774915,4,learning,0,resources/alien2_norm.png,0.60094317,resources/alien1_norm.png,0.722202375,TRUE,TRUE,3,0.120626247,red,m,0.2289,alien1,TRUE,2,0.436921479,35,1,0.722202375,m,0.6431,0,52,52,52,1,0.722202375,0.60094317,0.559049285,0.725062463,TRUE,,,,,,,,,,,,,,,,,,,,,,,,,,,,,,,,,
GOSH_A10,2023-11-10_10h40.56.593,two_step_task_legacy,2022.2.4,Win32,59.35774915,4,learning,1,resources/alien2_norm.png,0.616272459,resources/alien1_norm.png,0.747378689,TRUE,TRUE,3,0.966847244,red,x,0.2221,alien1,TRUE,2,0.554911385,36,1,0.747378689,m,0.7791,0,53,53,53,1,0.747378689,0.616272459,0.57552337,0.745893196,TRUE,,,,,,,,,,,,,,,,,,,,,,,,,,,,,,,,,
GOSH_A10,2023-11-10_10h40.56.593,two_step_task_legacy,2022.2.4,Win32,59.35774915,4,learning,1,resources/alien1_norm.png,0.685531181,resources/alien2_norm.png,0.603674478,TRUE,TRUE,3,0.872573692,red,x,0.4216,alien1,TRUE,2,0.59750018,37,1,0.685531181,x,1.063,0,54,54,54,1,0.685531181,0.603674478,0.596085384,0.740868649,FALSE,,,,,,,,,,,,,,,,,,,,,,,,,,,,,,,,,
GOSH_A10,2023-11-10_10h40.56.593,two_step_task_legacy,2022.2.4,Win32,59.35774915,4,learning,0,resources/alien1_norm.png,0.688074556,resources/alien2_norm.png,0.625850557,TRUE,TRUE,3,0.694670911,red,m,0.227,alien1,TRUE,2,0.353190953,38,1,0.688074556,x,0.5217,0,55,55,55,1,0.688074556,0.625850557,0.577550956,0.724326154,FALSE,,,,,,,,,,,,,,,,,,,,,,,,,,,,,,,,,
GOSH_A10,2023-11-10_10h40.56.593,two_step_task_legacy,2022.2.4,Win32,59.35774915,4,learning,0,resources/alien1_norm.png,0.663246753,resources/alien2_norm.png,0.617190689,TRUE,TRUE,3,0.108252279,red,m,0.2962,alien1,TRUE,2,0.28723586,39,1,0.663246753,x,0.4499,0,56,56,56,1,0.663246753,0.617190689,0.584079294,0.728943976,FALSE,,,,,,,,,,,,,,,,,,,,,,,,,,,,,,,,,
GOSH_A10,2023-11-10_10h40.56.593,two_step_task_legacy,2022.2.4,Win32,59.35774915,4,learning,0,resources/alien2_norm.png,0.611121997,resources/alien1_norm.png,0.648444122,TRUE,TRUE,3,0.346440439,red,m,0.2147,alien1,TRUE,2,0.057347908,40,1,0.648444122,m,0.5621,0,57,57,57,1,0.648444122,0.611121997,0.578067357,0.749481486,TRUE,,,,,,,,,,,,,,,,,,,,,,,,,,,,,,,,,
GOSH_A10,2023-11-10_10h40.56.593,two_step_task_legacy,2022.2.4,Win32,59.35774915,4,learning,0,resources/alien1_norm.png,0.676622776,resources/alien2_norm.png,0.625101394,TRUE,TRUE,3,0.608695126,red,m,0.3354,alien1,TRUE,2,0.539632335,41,1,0.676622776,x,0.5325,0,58,58,58,1,0.676622776,0.625101394,0.598288486,0.721493407,FALSE,,,,,,,,,,,,,,,,,,,,,,,,,,,,,,,,,
GOSH_A10,2023-11-10_10h40.56.593,two_step_task_legacy,2022.2.4,Win32,59.35774915,4,learning,0,resources/alien2_norm.png,0.665800562,resources/alien1_norm.png,0.689847488,TRUE,TRUE,3,0.396640713,red,m,0.1333,alien1,TRUE,3,0.821242719,41,0,0.689847488,m,0.4173,0,59,59,59,1,0.689847488,0.665800562,0.557855925,0.714889988,TRUE,,,,,,,,,,,,,,,,,,,,,,,,,,,,,,,,,
GOSH_A10,2023-11-10_10h40.56.593,two_step_task_legacy,2022.2.4,Win32,59.35774915,4,learning,0,resources/alien1_norm.png,0.717720941,resources/alien2_norm.png,0.648669251,TRUE,TRUE,3,0.58888878,red,m,0.1902,alien1,TRUE,2,0.671197287,42,1,0.717720941,x,0.6993,0,60,60,60,1,0.717720941,0.648669251,0.531914095,0.6693347,FALSE,,,,,,,,,,,,,,,,,,,,,,,,,,,,,,,,,
GOSH_A10,2023-11-10_10h40.56.593,two_step_task_legacy,2022.2.4,Win32,59.35774915,4,learning,0,resources/alien1_norm.png,0.661610946,resources/alien2_norm.png,0.646860561,TRUE,TRUE,3,0.34597485,red,m,0.2037,alien1,TRUE,2,0.153411368,43,1,0.661610946,x,0.4508,0,61,61,61,1,0.661610946,0.646860561,0.510276235,0.679727111,FALSE,,,,,,,,,,,,,,,,,,,,,,,,,,,,,,,,,
GOSH_A10,2023-11-10_10h40.56.593,two_step_task_legacy,2022.2.4,Win32,59.35774915,4,learning,0,resources/alien2_norm.png,0.627004415,resources/alien1_norm.png,0.656145255,TRUE,TRUE,3,0.130502864,red,m,0.0918,alien1,TRUE,3,0.762236687,43,0,0.656145255,m,0.4967,0,62,62,62,1,0.656145255,0.627004415,0.49869813,0.695042862,TRUE,,,,,,,,,,,,,,,,,,,,,,,,,,,,,,,,,
GOSH_A10,2023-11-10_10h40.56.593,two_step_task_legacy,2022.2.4,Win32,59.35774915,4,learning,0,resources/alien2_norm.png,0.629113125,resources/alien1_norm.png,0.630791729,TRUE,TRUE,3,0.321401082,red,m,0.1862,alien1,TRUE,2,0.258195635,44,1,0.630791729,m,0.3419,0,63,63,63,1,0.630791729,0.629113125,0.54503642,0.72246338,TRUE,,,,,,,,,,,,,,,,,,,,,,,,,,,,,,,,,
GOSH_A10,2023-11-10_10h40.56.593,two_step_task_legacy,2022.2.4,Win32,59.35774915,4,learning,0,resources/alien2_norm.png,0.65370092,resources/alien1_norm.png,0.612540457,TRUE,TRUE,3,0.432656607,red,m,0.0678,alien1,TRUE,3,0.90894291,44,0,0.612540457,m,0.3707,0,64,64,64,1,0.612540457,0.65370092,0.543735631,0.700523395,TRUE,,,,,,,,,,,,,,,,,,,,,,,,,,,,,,,,,
GOSH_A10,2023-11-10_10h40.56.593,two_step_task_legacy,2022.2.4,Win32,59.35774915,4,learning,0,resources/alien2_norm.png,0.683022062,resources/alien1_norm.png,0.59867619,TRUE,TRUE,3,0.672894497,red,m,0.2626,alien1,TRUE,2,0.199072774,45,1,0.59867619,m,0.2906,0,65,65,65,1,0.59867619,0.683022062,0.518545963,0.697685388,TRUE,,,,,,,,,,,,,,,,,,,,,,,,,,,,,,,,,
GOSH_A10,2023-11-10_10h40.56.593,two_step_task_legacy,2022.2.4,Win32,59.35774915,4,learning,0,resources/alien1_norm.png,0.625425207,resources/alien2_norm.png,0.674654184,TRUE,TRUE,3,0.127275317,red,m,0.2208,alien1,TRUE,2,0.324409038,46,1,0.625425207,x,0.6285,0,66,66,66,1,0.625425207,0.674654184,0.508248899,0.693832384,FALSE,,,,,,,,,,,,,,,,,,,,,,,,,,,,,,,,,
GOSH_A10,2023-11-10_10h40.56.593,two_step_task_legacy,2022.2.4,Win32,59.35774915,4,learning,0,resources/alien2_norm.png,0.701507056,resources/alien1_norm.png,0.655675286,TRUE,TRUE,3,0.414660704,red,m,0.0871,alien1,TRUE,3,0.665982434,46,0,0.655675286,m,0.4948,0,67,67,67,1,0.655675286,0.701507056,0.525062901,0.675420829,TRUE,,,,,,,,,,,,,,,,,,,,,,,,,,,,,,,,,
GOSH_A10,2023-11-10_10h40.56.593,two_step_task_legacy,2022.2.4,Win32,59.35774915,4,learning,1,resources/alien4_norm.png,0.642448274,resources/alien3_norm.png,0.551839449,TRUE,TRUE,2,0.73539084,purple,m,0.2442,alien3,TRUE,3,0.94821869,46,0,0.551839449,m,0.976,0,68,68,68,1,0.637758686,0.67166996,0.551839449,0.642448274,TRUE,,,,,,,,,,,,,,,,,,,,,,,,,,,,,,,,,
GOSH_A10,2023-11-10_10h40.56.593,two_step_task_legacy,2022.2.4,Win32,59.35774915,4,learning,0,resources/alien1_norm.png,0.671744386,resources/alien2_norm.png,0.647407293,TRUE,TRUE,3,0.197875558,red,m,0.4149,alien1,TRUE,2,0.235269187,47,1,0.671744386,x,0.6167,0,69,69,69,1,0.671744386,0.647407293,0.548248453,0.640383184,FALSE,,,,,,,,,,,,,,,,,,,,,,,,,,,,,,,,,
GOSH_A10,2023-11-10_10h40.56.593,two_step_task_legacy,2022.2.4,Win32,59.35774915,4,learning,1,resources/alien3_norm.png,0.55259829,resources/alien4_norm.png,0.599602124,TRUE,TRUE,2,0.72435626,purple,m,0.0663,alien4,TRUE,2,0.553667073,48,1,0.599602124,m,0.9196,0,70,70,70,1,0.717480766,0.636657553,0.55259829,0.599602124,FALSE,,,,,,,,,,,,,,,,,,,,,,,,,,,,,,,,,
GOSH_A10,2023-11-10_10h40.56.593,two_step_task_legacy,2022.2.4,Win32,59.35774915,4,learning,1,resources/alien3_norm.png,0.582043005,resources/alien4_norm.png,0.607966578,TRUE,TRUE,2,0.717401923,purple,m,0.1687,alien4,TRUE,3,0.727665246,48,0,0.607966578,m,0.6681,0,71,71,71,1,0.700684726,0.636086446,0.582043005,0.607966578,FALSE,,,,,,,,,,,,,,,,,,,,,,,,,,,,,,,,,
GOSH_A10,2023-11-10_10h40.56.593,two_step_task_legacy,2022.2.4,Win32,59.35774915,4,learning,0,resources/alien2_norm.png,0.63923175,resources/alien1_norm.png,0.668092692,TRUE,TRUE,3,0.333594363,red,m,0.2339,alien1,TRUE,2,0.158589098,49,1,0.668092692,m,0.4218,0,72,72,72,1,0.668092692,0.63923175,0.596964849,0.645982736,TRUE,,,,,,,,,,,,,,,,,,,,,,,,,,,,,,,,,
GOSH_A10,2023-11-10_10h40.56.593,two_step_task_legacy,2022.2.4,Win32,59.35774915,4,learning,0,resources/alien2_norm.png,0.660846117,resources/alien1_norm.png,0.686325338,TRUE,TRUE,3,0.697662569,red,m,0.2262,alien1,TRUE,2,0.349460931,50,1,0.686325338,m,0.372,0,73,73,73,1,0.686325338,0.660846117,0.599337874,0.611402388,TRUE,,,,,,,,,,,,,,,,,,,,,,,,,,,,,,,,,
GOSH_A10,2023-11-10_10h40.56.593,two_step_task_legacy,2022.2.4,Win32,59.35774915,4,learning,0,resources/alien2_norm.png,0.63603781,resources/alien1_norm.png,0.681522799,TRUE,TRUE,3,0.205326304,red,m,0.2443,alien1,TRUE,2,0.557246791,51,1,0.681522799,m,0.512,0,74,74,74,1,0.681522799,0.63603781,0.584931769,0.578757794,TRUE,,,,,,,,,,,,,,,,,,,,,,,,,,,,,,,,,
GOSH_A10,2023-11-10_10h40.56.593,two_step_task_legacy,2022.2.4,Win32,59.35774915,4,learning,0,resources/alien2_norm.png,0.668013482,resources/alien1_norm.png,0.694546121,TRUE,TRUE,3,0.146247461,red,m,0.2831,alien1,TRUE,2,0.34821009,52,1,0.694546121,m,0.416,0,75,75,75,1,0.694546121,0.668013482,0.58633745,0.583999801,TRUE,,,,,,,,,,,,,,,,,,,,,,,,,,,,,,,,,
GOSH_A10,2023-11-10_10h40.56.593,two_step_task_legacy,2022.2.4,Win32,59.35774915,4,learning,0,resources/alien1_norm.png,0.688428203,resources/alien2_norm.png,0.670972145,TRUE,TRUE,3,0.084171106,red,m,0.2186,alien1,TRUE,3,0.704652902,52,0,0.688428203,x,0.5459,0,76,76,76,1,0.688428203,0.670972145,0.618572647,0.58256071,FALSE,,,,,,,,,,,,,,,,,,,,,,,,,,,,,,,,,
GOSH_A10,2023-11-10_10h40.56.593,two_step_task_legacy,2022.2.4,Win32,59.35774915,4,learning,0,resources/alien1_norm.png,0.684514858,resources/alien2_norm.png,0.69222779,TRUE,TRUE,3,0.439898946,red,m,0.3051,alien1,TRUE,3,0.740063962,52,0,0.684514858,x,0.4214,0,77,77,77,1,0.684514858,0.69222779,0.611596499,0.567633367,FALSE,,,,,,,,,,,,,,,,,,,,,,,,,,,,,,,,,
GOSH_A10,2023-11-10_10h40.56.593,two_step_task_legacy,2022.2.4,Win32,59.35774915,4,learning,0,resources/alien2_norm.png,0.744148077,resources/alien1_norm.png,0.648201548,TRUE,TRUE,3,0.275930827,red,m,0.0273,alien2,TRUE,2,0.325983484,53,1,0.744148077,x,0.5896,0,78,78,78,1,0.648201548,0.744148077,0.616008699,0.583935421,TRUE,,,,,,,,,,,,,,,,,,,,,,,,,,,,,,,,,
GOSH_A10,2023-11-10_10h40.56.593,two_step_task_legacy,2022.2.4,Win32,59.35774915,4,learning,1,resources/alien3_norm.png,0.64486417,resources/alien4_norm.png,0.552496533,TRUE,TRUE,2,0.72209712,purple,m,0.2308,alien3,TRUE,3,0.831449896,53,0,0.64486417,x,1.206,0,79,79,79,1,0.635827969,0.721433206,0.64486417,0.552496533,FALSE,,,,,,,,,,,,,,,,,,,,,,,,,,,,,,,,,
GOSH_A10,2023-11-10_10h40.56.593,two_step_task_legacy,2022.2.4,Win32,59.35774915,4,learning,0,resources/alien1_norm.png,0.673456106,resources/alien2_norm.png,0.676189685,TRUE,TRUE,3,0.641362045,red,m,0.0545,alien2,TRUE,2,0.623228065,54,1,0.676189685,m,0.944,0,80,80,80,1,0.673456106,0.676189685,0.647788484,0.521841309,FALSE,,,,,,,,,,,,,,,,,,,,,,,,,,,,,,,,,
GOSH_A10,2023-11-10_10h40.56.593,two_step_task_legacy,2022.2.4,Win32,59.35774915,4,learning,1,resources/alien3_norm.png,0.685354512,resources/alien4_norm.png,0.527047195,TRUE,TRUE,2,0.977051944,purple,m,0.1998,alien4,TRUE,3,0.981926038,54,0,0.527047195,m,1.0869,0,81,81,81,1,0.689133456,0.665185929,0.685354512,0.527047195,FALSE,,,,,,,,,,,,,,,,,,,,,,,,,,,,,,,,,
GOSH_A10,2023-11-10_10h40.56.593,two_step_task_legacy,2022.2.4,Win32,59.35774915,4,learning,0,resources/alien2_norm.png,0.698886555,resources/alien1_norm.png,0.706821286,TRUE,TRUE,3,0.168106933,red,m,0.2106,alien2,TRUE,2,0.468356568,55,1,0.698886555,x,0.8162,0,82,82,82,1,0.706821286,0.698886555,0.729212051,0.536142419,TRUE,,,,,,,,,,,,,,,,,,,,,,,,,,,,,,,,,
GOSH_A10,2023-11-10_10h40.56.593,two_step_task_legacy,2022.2.4,Win32,59.35774915,4,learning,0,resources/alien2_norm.png,0.696312699,resources/alien1_norm.png,0.695989226,TRUE,TRUE,3,0.598861786,red,m,0.2378,alien2,TRUE,2,0.537403751,56,1,0.696312699,x,0.6822,0,83,83,83,1,0.695989226,0.696312699,0.743470703,0.523815865,TRUE,,,,,,,,,,,,,,,,,,,,,,,,,,,,,,,,,
GOSH_A10,2023-11-10_10h40.56.593,two_step_task_legacy,2022.2.4,Win32,59.35774915,4,learning,1,resources/alien4_norm.png,0.562465929,resources/alien3_norm.png,0.740120038,TRUE,TRUE,2,0.842318866,purple,m,0.148,alien4,TRUE,2,0.463488598,57,1,0.562465929,x,1.6545,0,84,84,84,1,0.734701173,0.649733708,0.740120038,0.562465929,TRUE,,,,,,,,,,,,,,,,,,,,,,,,,,,,,,,,,
GOSH_A10,2023-11-10_10h40.56.593,two_step_task_legacy,2022.2.4,Win32,59.35774915,4,learning,0,resources/alien2_norm.png,0.614575836,resources/alien1_norm.png,0.685639988,TRUE,TRUE,3,0.264201508,red,m,0.1143,alien2,TRUE,2,0.493324792,58,1,0.614575836,x,0.5896,0,85,85,85,1,0.685639988,0.614575836,0.747459119,0.560395165,TRUE,,,,,,,,,,,,,,,,,,,,,,,,,,,,,,,,,
GOSH_A10,2023-11-10_10h40.56.593,two_step_task_legacy,2022.2.4,Win32,59.35774915,4,learning,1,resources/alien4_norm.png,0.553950792,resources/alien3_norm.png,0.739747496,TRUE,TRUE,2,0.907622079,purple,m,0.0391,alien4,TRUE,2,0.146835888,59,1,0.553950792,x,0.7099,0,86,86,86,1,0.747269927,0.635889034,0.739747496,0.553950792,TRUE,,,,,,,,,,,,,,,,,,,,,,,,,,,,,,,,,
GOSH_A10,2023-11-10_10h40.56.593,two_step_task_legacy,2022.2.4,Win32,59.35774915,4,learning,1,resources/alien4_norm.png,0.540800492,resources/alien3_norm.png,0.720528232,TRUE,TRUE,2,0.743091876,purple,m,0.141,alien4,TRUE,2,0.072904055,60,1,0.540800492,x,0.4955,0,87,87,87,1,0.723611405,0.615434995,0.720528232,0.540800492,TRUE,,,,,,,,,,,,,,,,,,,,,,,,,,,,,,,,,
GOSH_A10,2023-11-10_10h40.56.593,two_step_task_legacy,2022.2.4,Win32,59.35774915,4,learning,1,resources/alien4_norm.png,0.552648518,resources/alien3_norm.png,0.720139582,TRUE,TRUE,2,0.827488362,purple,m,0.0006,alien4,TRUE,3,0.977576522,60,0,0.552648518,x,0.5658,0,88,88,88,1,0.733565483,0.617571559,0.720139582,0.552648518,TRUE,,,,,,,,,,,,,,,,,,,,,,,,,,,,,,,,,
GOSH_A10,2023-11-10_10h40.56.593,two_step_task_legacy,2022.2.4,Win32,59.35774915,4,learning,1,resources/alien3_norm.png,0.710865526,resources/alien4_norm.png,0.525233651,TRUE,TRUE,2,0.958315952,purple,m,0.2488,alien4,TRUE,2,0.451809464,61,1,0.525233651,m,0.7456,0,89,89,89,1,0.716799535,0.62032434,0.710865526,0.525233651,FALSE,,,,,,,,,,,,,,,,,,,,,,,,,,,,,,,,,
GOSH_A10,2023-11-10_10h40.56.593,two_step_task_legacy,2022.2.4,Win32,59.35774915,4,learning,1,resources/alien3_norm.png,0.707326247,resources/alien4_norm.png,0.477030298,TRUE,TRUE,2,0.888757157,purple,m,0.368,alien4,TRUE,2,0.417744038,62,1,0.477030298,m,0.4509,0,90,90,90,1,0.697708351,0.592138281,0.707326247,0.477030298,FALSE,,,,,,,,,,,,,,,,,,,,,,,,,,,,,,,,,
GOSH_A10,2023-11-10_10h40.56.593,two_step_task_legacy,2022.2.4,Win32,59.35774915,4,learning,0,resources/alien1_norm.png,0.656811595,resources/alien2_norm.png,0.578162809,TRUE,TRUE,3,0.430395592,red,m,0.224,alien2,TRUE,2,0.381997871,63,1,0.578162809,m,0.328,0,91,91,91,1,0.656811595,0.578162809,0.693235307,0.485490214,FALSE,,,,,,,,,,,,,,,,,,,,,,,,,,,,,,,,,
GOSH_A10,2023-11-10_10h40.56.593,two_step_task_legacy,2022.2.4,Win32,59.35774915,4,learning,0,resources/alien1_norm.png,0.672837186,resources/alien2_norm.png,0.565150917,TRUE,TRUE,3,0.048306944,red,m,0.3939,alien2,TRUE,2,0.404732709,64,1,0.565150917,m,0.5166,0,92,92,92,1,0.672837186,0.565150917,0.702752807,0.435668915,FALSE,,,,,,,,,,,,,,,,,,,,,,,,,,,,,,,,,
GOSH_A10,2023-11-10_10h40.56.593,two_step_task_legacy,2022.2.4,Win32,59.35774915,4,learning,0,resources/alien2_norm.png,0.529168175,resources/alien1_norm.png,0.676148976,TRUE,TRUE,3,0.640958048,red,m,0.279,alien1,TRUE,2,0.242306589,65,1,0.676148976,m,0.468,0,93,93,93,1,0.676148976,0.529168175,0.651971234,0.460123955,TRUE,,,,,,,,,,,,,,,,,,,,,,,,,,,,,,,,,
GOSH_A10,2023-11-10_10h40.56.593,two_step_task_legacy,2022.2.4,Win32,59.35774915,4,learning,0,resources/alien1_norm.png,0.635695198,resources/alien2_norm.png,0.550348922,TRUE,TRUE,3,0.263259154,red,m,0.2311,alien2,TRUE,2,0.506846188,66,1,0.550348922,m,0.5399,0,94,94,94,1,0.635695198,0.550348922,0.666368314,0.462021783,FALSE,,,,,,,,,,,,,,,,,,,,,,,,,,,,,,,,,
GOSH_A10,2023-11-10_10h40.56.593,two_step_task_legacy,2022.2.4,Win32,59.35774915,4,learning,0,resources/alien1_norm.png,0.64731031,resources/alien2_norm.png,0.540740978,TRUE,TRUE,3,0.224741576,red,m,0.2,alien2,TRUE,3,0.877162238,66,0,0.540740978,m,0.2872,0,95,95,95,1,0.64731031,0.540740978,0.675864002,0.464566239,FALSE,,,,,,,,,,,,,,,,,,,,,,,,,,,,,,,,,
GOSH_A10,2023-11-10_10h40.56.593,two_step_task_legacy,2022.2.4,Win32,59.35774915,4,learning,0,resources/alien2_norm.png,0.470510182,resources/alien1_norm.png,0.616107931,TRUE,TRUE,3,0.376876333,red,m,0.1,alien1,TRUE,3,0.917883207,66,0,0.616107931,m,0.6991,0,96,96,96,1,0.616107931,0.470510182,0.681668623,0.457390436,TRUE,,,,,,,,,,,,,,,,,,,,,,,,,,,,,,,,,
GOSH_A10,2023-11-10_10h40.56.593,two_step_task_legacy,2022.2.4,Win32,59.35774915,4,learning,0,resources/alien2_norm.png,0.470491496,resources/alien1_norm.png,0.649745482,TRUE,TRUE,3,0.27265606,red,m,0.0763,alien2,TRUE,2,0.182192505,67,1,0.470491496,x,0.3915,0,97,97,97,1,0.649745482,0.470491496,0.680331253,0.515938065,TRUE,,,,,,,,,,,,,,,,,,,,,,,,,,,,,,,,,
GOSH_A10,2023-11-10_10h40.56.593,two_step_task_legacy,2022.2.4,Win32,59.35774915,4,learning,0,resources/alien1_norm.png,0.66691481,resources/alien2_norm.png,0.458699425,TRUE,TRUE,3,0.182866367,red,m,0.2872,alien1,TRUE,2,0.603802276,68,1,0.66691481,x,0.3437,0,98,98,98,1,0.66691481,0.458699425,0.673122691,0.481141694,FALSE,,,,,,,,,,,,,,,,,,,,,,,,,,,,,,,,,
GOSH_A10,2023-11-10_10h40.56.593,two_step_task_legacy,2022.2.4,Win32,59.35774915,4,learning,0,resources/alien1_norm.png,0.670163,resources/alien2_norm.png,0.440355987,TRUE,TRUE,3,0.274612778,red,m,0.1959,alien1,TRUE,2,0.312295744,69,1,0.670163,x,0.3856,0,99,99,99,1,0.670163,0.440355987,0.670114402,0.452733412,FALSE,,,,,,,,,,,,,,,,,,,,,,,,,,,,,,,,,
GOSH_A10,2023-11-10_10h40.56.593,two_step_task_legacy,2022.2.4,Win32,59.35774915,4,learning,1,resources/alien4_norm.png,0.461700993,resources/alien3_norm.png,0.642860081,TRUE,TRUE,2,0.970183485,purple,m,0.2366,alien4,TRUE,3,0.56224158,69,0,0.461700993,x,0.7182,0,100,100,100,1,0.662758721,0.410336414,0.642860081,0.461700993,TRUE,,,,,,,,,,,,,,,,,,,,,,,,,,,,,,,,,
GOSH_A10,2023-11-10_10h40.56.593,two_step_task_legacy,2022.2.4,Win32,59.35774915,4,learning,0,resources/alien1_norm.png,0.643313989,resources/alien2_norm.png,0.424058962,TRUE,TRUE,3,0.150629558,red,m,0.1181,alien1,TRUE,3,0.721238502,69,0,0.643313989,x,0.6502,0,101,101,101,1,0.643313989,0.424058962,0.646010365,0.454211483,FALSE,,,,,,,,,,,,,,,,,,,,,,,,,,,,,,,,,
GOSH_A10,2023-11-10_10h40.56.593,two_step_task_legacy,2022.2.4,Win32,59.35774915,4,learning,0,resources/alien2_norm.png,0.389917938,resources/alien1_norm.png,0.631476746,TRUE,TRUE,3,0.331591939,red,m,0.1785,alien1,TRUE,2,0.154780244,70,1,0.631476746,m,0.5659,0,102,102,102,1,0.631476746,0.389917938,0.686955458,0.403618261,TRUE,,,,,,,,,,,,,,,,,,,,,,,,,,,,,,,,,
GOSH_A10,2023-11-10_10h40.56.593,two_step_task_legacy,2022.2.4,Win32,59.35774915,4,learning,1,resources/alien3_norm.png,0.689619337,resources/alien4_norm.png,0.408997292,TRUE,TRUE,2,0.86874803,purple,m,0.1977,alien4,TRUE,2,0.037243001,71,1,0.408997292,m,0.786,0,103,103,103,1,0.607448023,0.403863017,0.689619337,0.408997292,FALSE,,,,,,,,,,,,,,,,,,,,,,,,,,,,,,,,,
GOSH_A10,2023-11-10_10h40.56.593,two_step_task_legacy,2022.2.4,Win32,59.35774915,4,learning,0,resources/alien2_norm.png,0.32950117,resources/alien1_norm.png,0.619684973,TRUE,TRUE,3,0.07256827,red,m,0.2339,alien2,TRUE,2,0.272315308,72,1,0.32950117,x,0.5987,0,104,104,104,1,0.619684973,0.32950117,0.705183971,0.360989718,TRUE,,,,,,,,,,,,,,,,,,,,,,,,,,,,,,,,,
GOSH_A10,2023-11-10_10h40.56.593,two_step_task_legacy,2022.2.4,Win32,59.35774915,4,learning,0,resources/alien2_norm.png,0.324837411,resources/alien1_norm.png,0.626375391,TRUE,TRUE,3,0.040290757,red,m,0.2331,alien2,TRUE,2,0.193104207,73,1,0.324837411,x,0.4106,0,105,105,105,1,0.626375391,0.324837411,0.681410354,0.380752686,TRUE,,,,,,,,,,,,,,,,,,,,,,,,,,,,,,,,,
GOSH_A10,2023-11-10_10h40.56.593,two_step_task_legacy,2022.2.4,Win32,59.35774915,4,learning,1,resources/alien4_norm.png,0.408132147,resources/alien3_norm.png,0.698260812,TRUE,TRUE,2,0.726927221,purple,m,0.2163,alien4,TRUE,3,0.584784164,73,0,0.408132147,x,0.844,0,106,106,106,1,0.615880608,0.30981068,0.698260812,0.408132147,TRUE,,,,,,,,,,,,,,,,,,,,,,,,,,,,,,,,,
GOSH_A10,2023-11-10_10h40.56.593,two_step_task_legacy,2022.2.4,Win32,59.35774915,4,learning,1,resources/alien3_norm.png,0.676320094,resources/alien4_norm.png,0.382292006,TRUE,TRUE,2,0.781077016,purple,m,0.0005,alien3,TRUE,2,0.511810162,74,1,0.676320094,x,1.0176,0,107,107,107,1,0.62523509,0.292426972,0.676320094,0.382292006,FALSE,,,,,,,,,,,,,,,,,,,,,,,,,,,,,,,,,
GOSH_A10,2023-11-10_10h40.56.593,two_step_task_legacy,2022.2.4,Win32,59.35774915,4,learning,1,resources/alien3_norm.png,0.660357999,resources/alien4_norm.png,0.37300537,TRUE,TRUE,2,0.885916191,purple,m,0.2086,alien3,TRUE,2,0.198044577,75,1,0.660357999,x,0.6074,0,108,108,108,1,0.598569321,0.344907943,0.660357999,0.37300537,FALSE,,,,,,,,,,,,,,,,,,,,,,,,,,,,,,,,,
GOSH_A10,2023-11-10_10h40.56.593,two_step_task_legacy,2022.2.4,Win32,59.35774915,4,learning,0,resources/alien1_norm.png,0.570361358,resources/alien2_norm.png,0.331154462,TRUE,TRUE,3,0.295576287,red,m,0.2397,alien2,TRUE,2,0.106590913,76,1,0.331154462,m,0.8582,0,109,109,109,1,0.570361358,0.331154462,0.613979315,0.37993784,FALSE,,,,,,,,,,,,,,,,,,,,,,,,,,,,,,,,,
GOSH_A10,2023-11-10_10h40.56.593,two_step_task_legacy,2022.2.4,Win32,59.35774915,4,learning,0,resources/alien1_norm.png,0.58740035,resources/alien2_norm.png,0.337657948,TRUE,TRUE,3,0.138025815,red,m,0.2619,alien2,TRUE,2,0.314360786,77,1,0.337657948,m,0.817,0,110,110,110,1,0.58740035,0.337657948,0.619699199,0.393058165,FALSE,,,,,,,,,,,,,,,,,,,,,,,,,,,,,,,,,
GOSH_A10,2023-11-10_10h40.56.593,two_step_task_legacy,2022.2.4,Win32,59.35774915,4,learning,1,resources/alien3_norm.png,0.619510259,resources/alien4_norm.png,0.416497809,TRUE,TRUE,2,0.994916267,purple,m,0.2608,alien3,TRUE,3,0.650218252,77,0,0.619510259,x,0.8037,0,111,111,111,1,0.559911302,0.359047055,0.619510259,0.416497809,FALSE,,,,,,,,,,,,,,,,,,,,,,,,,,,,,,,,,
GOSH_A10,2023-11-10_10h40.56.593,two_step_task_legacy,2022.2.4,Win32,59.35774915,4,learning,0,resources/alien2_norm.png,0.411191307,resources/alien1_norm.png,0.545494272,TRUE,TRUE,3,0.693675627,red,m,0.0567,alien2,TRUE,3,0.484327724,77,0,0.411191307,x,0.5686,0,112,112,112,1,0.545494272,0.411191307,0.613611162,0.435958342,TRUE,,,,,,,,,,,,,,,,,,,,,,,,,,,,,,,,,
GOSH_A10,2023-11-10_10h40.56.593,two_step_task_legacy,2022.2.4,Win32,59.35774915,4,learning,0,resources/alien2_norm.png,0.440247332,resources/alien1_norm.png,0.579246776,TRUE,TRUE,3,0.574100178,red,m,0.3508,alien2,TRUE,3,0.941280139,77,0,0.440247332,x,0.4827,0,113,113,113,1,0.579246776,0.440247332,0.637218142,0.452738616,TRUE,,,,,,,,,,,,,,,,,,,,,,,,,,,,,,,,,
GOSH_A10,2023-11-10_10h40.56.593,two_step_task_legacy,2022.2.4,Win32,59.35774915,4,learning,0,resources/alien1_norm.png,0.583340322,resources/alien2_norm.png,0.425079018,TRUE,TRUE,3,0.433707839,red,m,0.5209,alien1,TRUE,2,0.229183989,78,1,0.583340322,x,0.6174,0,114,114,114,1,0.583340322,0.425079018,0.596355675,0.468325959,FALSE,,,,,,,,,,,,,,,,,,,,,,,,,,,,,,,,,
GOSH_A10,2023-11-10_10h40.56.593,two_step_task_legacy,2022.2.4,Win32,59.35774915,4,learning,1,resources/alien3_norm.png,0.576655415,resources/alien4_norm.png,0.460870818,TRUE,TRUE,2,0.862183515,purple,m,0.2417,alien3,TRUE,2,0.392352999,79,1,0.576655415,x,1.027,0,115,115,115,1,0.604945689,0.434492892,0.576655415,0.460870818,FALSE,,,,,,,,,,,,,,,,,,,,,,,,,,,,,,,,,
GOSH_A10,2023-11-10_10h40.56.593,two_step_task_legacy,2022.2.4,Win32,59.35774915,4,learning,0,resources/alien1_norm.png,0.586469122,resources/alien2_norm.png,0.411991774,TRUE,TRUE,3,0.412312367,red,m,0.2637,alien2,TRUE,2,0.382482698,80,1,0.411991774,m,0.6418,0,116,116,116,1,0.586469122,0.411991774,0.614935872,0.448255298,FALSE,,,,,,,,,,,,,,,,,,,,,,,,,,,,,,,,,
GOSH_A10,2023-11-10_10h40.56.593,two_step_task_legacy,2022.2.4,Win32,59.35774915,4,learning,0,resources/alien1_norm.png,0.597680175,resources/alien2_norm.png,0.407781491,TRUE,TRUE,3,0.053962949,red,m,0.2333,alien2,TRUE,2,0.007004431,81,1,0.407781491,m,0.9477,0,117,117,117,1,0.597680175,0.407781491,0.642948289,0.438237026,FALSE,,,,,,,,,,,,,,,,,,,,,,,,,,,,,,,,,
GOSH_A10,2023-11-10_10h40.56.593,two_step_task_legacy,2022.2.4,Win32,59.35774915,4,learning,1,resources/alien3_norm.png,0.602822322,resources/alien4_norm.png,0.404509124,TRUE,TRUE,2,0.805605621,purple,m,0.2498,alien3,TRUE,2,0.419942813,82,1,0.602822322,x,0.8035,0,118,118,118,1,0.607140369,0.404204885,0.602822322,0.404509124,FALSE,,,,,,,,,,,,,,,,,,,,,,,,,,,,,,,,,
GOSH_A10,2023-11-10_10h40.56.593,two_step_task_legacy,2022.2.4,Win32,59.35774915,4,learning,0,resources/alien2_norm.png,0.380959241,resources/alien1_norm.png,0.645920283,TRUE,TRUE,3,0.048156102,red,m,0.2217,alien2,TRUE,3,0.645890326,82,0,0.380959241,x,0.5858,0,119,119,119,1,0.645920283,0.380959241,0.580273823,0.401051938,TRUE,,,,,,,,,,,,,,,,,,,,,,,,,,,,,,,,,
GOSH_A10,2023-11-10_10h40.56.593,two_step_task_legacy,2022.2.4,Win32,59.35774915,4,learning,0,resources/alien2_norm.png,0.392859086,resources/alien1_norm.png,0.658547117,TRUE,TRUE,3,0.262113084,red,m,0.3909,alien1,TRUE,3,0.950095664,82,0,0.658547117,m,0.4348,0,120,120,120,1,0.658547117,0.392859086,0.631562859,0.412259552,TRUE,,,,,,,,,,,,,,,,,,,,,,,,,,,,,,,,,
GOSH_A10,2023-11-10_10h40.56.593,two_step_task_legacy,2022.2.4,Win32,59.35774915,4,learning,1,resources/alien3_norm.png,0.604082121,resources/alien4_norm.png,0.395928975,TRUE,TRUE,2,0.896446625,purple,m,0.2037,alien3,TRUE,3,0.769559839,82,0,0.604082121,x,0.6164,0,121,121,121,1,0.650404676,0.360451327,0.604082121,0.395928975,FALSE,,,,,,,,,,,,,,,,,,,,,,,,,,,,,,,,,
GOSH_A10,2023-11-10_10h40.56.593,two_step_task_legacy,2022.2.4,Win32,59.35774915,4,learning,0,resources/alien1_norm.png,0.673272533,resources/alien2_norm.png,0.355956285,TRUE,TRUE,3,0.576792324,red,m,0.2509,alien2,TRUE,2,0.093768037,83,1,0.355956285,m,0.6875,0,122,122,122,1,0.673272533,0.355956285,0.628665817,0.386308261,FALSE,,,,,,,,,,,,,,,,,,,,,,,,,,,,,,,,,
GOSH_A10,2023-11-10_10h40.56.593,two_step_task_legacy,2022.2.4,Win32,59.35774915,4,learning,1,resources/alien3_norm.png,0.610103866,resources/alien4_norm.png,0.357718182,TRUE,TRUE,2,0.81681816,purple,m,0.273,alien4,TRUE,3,0.52906803,83,0,0.357718182,m,0.7593,0,123,123,123,1,0.670632873,0.327747525,0.610103866,0.357718182,FALSE,,,,,,,,,,,,,,,,,,,,,,,,,,,,,,,,,
GOSH_A10,2023-11-10_10h40.56.593,two_step_task_legacy,2022.2.4,Win32,59.35774915,4,learning,0,resources/alien2_norm.png,0.344154365,resources/alien1_norm.png,0.657862677,TRUE,TRUE,3,0.226031475,red,m,0.2506,alien2,TRUE,3,0.586934943,83,0,0.344154365,x,0.4768,0,124,124,124,1,0.657862677,0.344154365,0.613229285,0.37097985,TRUE,,,,,,,,,,,,,,,,,,,,,,,,,,,,,,,,,
GOSH_A10,2023-11-10_10h40.56.593,two_step_task_legacy,2022.2.4,Win32,59.35774915,4,learning,0,resources/alien2_norm.png,0.309658221,resources/alien1_norm.png,0.621544128,TRUE,TRUE,3,0.043710547,red,m,0.1045,alien1,TRUE,2,0.479421843,84,1,0.621544128,m,0.3509,0,125,125,125,1,0.621544128,0.309658221,0.610850875,0.381658026,TRUE,,,,,,,,,,,,,,,,,,,,,,,,,,,,,,,,,
GOSH_A10,2023-11-10_10h40.56.593,two_step_task_legacy,2022.2.4,Win32,59.35774915,4,learning,1,resources/alien3_norm.png,0.609641124,resources/alien4_norm.png,0.398279361,TRUE,TRUE,2,0.949729265,purple,m,0.1626,alien3,TRUE,2,0.228587115,85,1,0.609641124,x,0.9977,0,126,126,126,1,0.638765158,0.331079162,0.609641124,0.398279361,FALSE,,,,,,,,,,,,,,,,,,,,,,,,,,,,,,,,,
GOSH_A10,2023-11-10_10h40.56.593,two_step_task_legacy,2022.2.4,Win32,59.35774915,4,learning,0,resources/alien1_norm.png,0.626231969,resources/alien2_norm.png,0.317571318,TRUE,TRUE,3,0.50177065,red,m,0.2182,alien1,TRUE,2,0.112535621,86,1,0.626231969,x,0.7723,0,127,127,127,1,0.626231969,0.317571318,0.58487235,0.373544908,FALSE,,,,,,,,,,,,,,,,,,,,,,,,,,,,,,,,,
GOSH_A10,2023-11-10_10h40.56.593,two_step_task_legacy,2022.2.4,Win32,59.35774915,4,learning,1,resources/alien3_norm.png,0.568265306,resources/alien4_norm.png,0.391101509,TRUE,TRUE,2,0.964476747,purple,m,0.2609,alien3,TRUE,2,0.436163607,87,1,0.568265306,x,1.0504,0,128,128,128,1,0.678718937,0.327327384,0.568265306,0.391101509,FALSE,,,,,,,,,,,,,,,,,,,,,,,,,,,,,,,,,
GOSH_A10,2023-11-10_10h40.56.593,two_step_task_legacy,2022.2.4,Win32,59.35774915,4,learning,0,resources/alien2_norm.png,0.320525721,resources/alien1_norm.png,0.684288487,TRUE,TRUE,3,0.296393373,red,m,0.2217,alien2,TRUE,3,0.667107172,87,0,0.320525721,x,0.5768,0,129,129,129,1,0.684288487,0.320525721,0.597478578,0.421707366,TRUE,,,,,,,,,,,,,,,,,,,,,,,,,,,,,,,,,
GOSH_A10,2023-11-10_10h40.56.593,two_step_task_legacy,2022.2.4,Win32,59.35774915,4,learning,1,resources/alien4_norm.png,0.43392991,resources/alien3_norm.png,0.601527307,TRUE,TRUE,2,0.773731369,purple,m,0.4288,alien3,TRUE,2,0.221139709,88,1,0.601527307,m,0.9703,0,130,130,130,1,0.708061265,0.343294024,0.601527307,0.43392991,TRUE,,,,,,,,,,,,,,,,,,,,,,,,,,,,,,,,,
GOSH_A10,2023-11-10_10h40.56.593,two_step_task_legacy,2022.2.4,Win32,59.35774915,4,learning,1,resources/alien4_norm.png,0.426719665,resources/alien3_norm.png,0.64763363,TRUE,TRUE,2,0.960772281,purple,m,0.3875,alien3,TRUE,3,0.89644732,88,0,0.64763363,m,0.9532,0,131,131,131,1,0.686290312,0.382507356,0.64763363,0.426719665,TRUE,,,,,,,,,,,,,,,,,,,,,,,,,,,,,,,,,
GOSH_A10,2023-11-10_10h40.56.593,two_step_task_legacy,2022.2.4,Win32,59.35774915,4,learning,1,resources/alien4_norm.png,0.46105971,resources/alien3_norm.png,0.651574397,TRUE,TRUE,2,0.735531053,purple,m,0.2593,alien3,TRUE,2,0.503488284,89,1,0.651574397,m,0.6665,0,132,132,132,1,0.699484736,0.351467325,0.651574397,0.46105971,TRUE,,,,,,,,,,,,,,,,,,,,,,,,,,,,,,,,,
GOSH_A10,2023-11-10_10h40.56.593,two_step_task_legacy,2022.2.4,Win32,59.35774915,4,learning,1,resources/alien4_norm.png,0.445730538,resources/alien3_norm.png,0.646278608,TRUE,TRUE,2,0.78265583,purple,m,0.2384,alien3,TRUE,2,0.447102932,90,1,0.646278608,m,0.5397,0,133,133,133,1,0.641468852,0.341104878,0.646278608,0.445730538,TRUE,,,,,,,,,,,,,,,,,,,,,,,,,,,,,,,,,
GOSH_A10,2023-11-10_10h40.56.593,two_step_task_legacy,2022.2.4,Win32,59.35774915,4,learning,0,resources/alien1_norm.png,0.644630983,resources/alien2_norm.png,0.334501306,TRUE,TRUE,3,0.511925366,red,m,0.2428,alien1,TRUE,2,0.12640927,91,1,0.644630983,x,0.8454,0,134,134,134,1,0.644630983,0.334501306,0.567315406,0.415065107,FALSE,,,,,,,,,,,,,,,,,,,,,,,,,,,,,,,,,
GOSH_A10,2023-11-10_10h40.56.593,two_step_task_legacy,2022.2.4,Win32,59.35774915,4,learning,1,resources/alien4_norm.png,0.435505403,resources/alien3_norm.png,0.546803619,TRUE,TRUE,2,0.829952772,purple,m,0.2339,alien3,TRUE,2,0.51155072,92,1,0.546803619,m,0.7589,0,135,135,135,1,0.62177449,0.306808941,0.546803619,0.435505403,TRUE,,,,,,,,,,,,,,,,,,,,,,,,,,,,,,,,,
GOSH_A10,2023-11-10_10h40.56.593,two_step_task_legacy,2022.2.4,Win32,59.35774915,4,learning,1,resources/alien4_norm.png,0.435824404,resources/alien3_norm.png,0.530728159,TRUE,TRUE,2,0.995525677,purple,m,0.2053,alien3,TRUE,3,0.55256974,92,0,0.530728159,m,0.641,0,136,136,136,1,0.583999286,0.335239917,0.530728159,0.435824404,TRUE,,,,,,,,,,,,,,,,,,,,,,,,,,,,,,,,,
GOSH_A10,2023-11-10_10h40.56.593,two_step_task_legacy,2022.2.4,Win32,59.35774915,4,learning,0,resources/alien2_norm.png,0.307734706,resources/alien1_norm.png,0.622896698,TRUE,TRUE,3,0.483945254,red,m,0.1496,alien2,TRUE,3,0.654673018,92,0,0.307734706,x,0.5032,0,137,137,137,1,0.622896698,0.307734706,0.526351702,0.410734121,TRUE,,,,,,,,,,,,,,,,,,,,,,,,,,,,,,,,,
GOSH_A10,2023-11-10_10h40.56.593,two_step_task_legacy,2022.2.4,Win32,59.35774915,4,learning,0,resources/alien1_norm.png,0.652449873,resources/alien2_norm.png,0.293138513,TRUE,TRUE,3,0.567779696,red,m,0.0531,alien1,TRUE,2,0.092628614,93,1,0.652449873,x,0.6291,0,138,138,138,1,0.652449873,0.293138513,0.540851944,0.424768301,FALSE,,,,,,,,,,,,,,,,,,,,,,,,,,,,,,,,,
GOSH_A10,2023-11-10_10h40.56.593,two_step_task_legacy,2022.2.4,Win32,59.35774915,4,learning,0,resources/alien2_norm.png,0.272932121,resources/alien1_norm.png,0.641621388,TRUE,TRUE,3,0.570794592,red,m,0.1998,alien1,TRUE,2,0.440287347,94,1,0.641621388,m,0.5062,0,139,139,139,1,0.641621388,0.272932121,0.526378494,0.405697073,TRUE,,,,,,,,,,,,,,,,,,,,,,,,,,,,,,,,,
GOSH_A10,2023-11-10_10h40.56.593,two_step_task_legacy,2022.2.4,Win32,59.35774915,4,learning,0,resources/alien1_norm.png,0.62488726,resources/alien2_norm.png,0.255851205,TRUE,TRUE,3,0.042886604,red,m,0.2384,alien1,TRUE,3,0.973841847,94,0,0.62488726,x,0.434,0,140,140,140,1,0.62488726,0.255851205,0.5484319,0.443309791,FALSE,,,,,,,,,,,,,,,,,,,,,,,,,,,,,,,,,
GOSH_A10,2023-11-10_10h40.56.593,two_step_task_legacy,2022.2.4,Win32,59.35774915,4,learning,0,resources/alien1_norm.png,0.662793601,resources/alien2_norm.png,0.257559917,TRUE,TRUE,3,0.562851595,red,m,0.0563,alien1,TRUE,2,0.590409993,95,1,0.662793601,x,0.4165,0,141,141,141,1,0.662793601,0.257559917,0.528872078,0.47882794,FALSE,,,,,,,,,,,,,,,,,,,,,,,,,,,,,,,,,
GOSH_A10,2023-11-10_10h40.56.593,two_step_task_legacy,2022.2.4,Win32,59.35774915,4,learning,1,resources/alien4_norm.png,0.463754704,resources/alien3_norm.png,0.534881349,TRUE,TRUE,2,0.706083024,purple,m,0.0369,alien4,TRUE,2,0.084047581,96,1,0.463754704,x,0.9342,0,142,142,142,1,0.673804421,0.263651818,0.534881349,0.463754704,TRUE,,,,,,,,,,,,,,,,,,,,,,,,,,,,,,,,,
GOSH_A10,2023-11-10_10h40.56.593,two_step_task_legacy,2022.2.4,Win32,59.35774915,4,learning,1,resources/alien3_norm.png,0.509649718,resources/alien4_norm.png,0.462479402,TRUE,TRUE,2,0.780669975,purple,m,0.2147,alien4,TRUE,2,0.248238078,97,1,0.462479402,m,1.0947,0,143,143,143,1,0.698580012,0.269979962,0.509649718,0.462479402,FALSE,,,,,,,,,,,,,,,,,,,,,,,,,,,,,,,,,
GOSH_A10,2023-11-10_10h40.56.593,two_step_task_legacy,2022.2.4,Win32,59.35774915,4,learning,1,resources/alien3_norm.png,0.586453861,resources/alien4_norm.png,0.449444223,TRUE,TRUE,2,0.879680526,purple,m,0.2294,alien4,TRUE,2,0.038718085,98,1,0.449444223,m,0.4767,0,144,144,144,1,0.736530576,0.296852887,0.586453861,0.449444223,FALSE,,,,,,,,,,,,,,,,,,,,,,,,,,,,,,,,,
GOSH_A10,2023-11-10_10h40.56.593,two_step_task_legacy,2022.2.4,Win32,59.35774915,4,learning,0,resources/alien1_norm.png,0.729630293,resources/alien2_norm.png,0.285357955,TRUE,TRUE,3,0.632952963,red,m,0.3306,alien1,TRUE,3,0.757644345,98,0,0.729630293,x,0.8203,0,145,145,145,1,0.729630293,0.285357955,0.591891528,0.429541148,FALSE,,,,,,,,,,,,,,,,,,,,,,,,,,,,,,,,,
GOSH_A10,2023-11-10_10h40.56.593,two_step_task_legacy,2022.2.4,Win32,59.35774915,4,learning,0,resources/alien1_norm.png,0.733408604,resources/alien2_norm.png,0.263038351,TRUE,TRUE,3,0.250421898,red,m,0.209,alien1,TRUE,2,0.678323409,99,1,0.733408604,x,0.5677,0,146,146,146,1,0.733408604,0.263038351,0.600996283,0.450195866,FALSE,,,,,,,,,,,,,,,,,,,,,,,,,,,,,,,,,
GOSH_A10,2023-11-10_10h40.56.593,two_step_task_legacy,2022.2.4,Win32,59.35774915,4,learning,0,resources/alien1_norm.png,0.711810619,resources/alien2_norm.png,0.298461205,TRUE,TRUE,3,0.613502317,red,m,0.2664,alien1,TRUE,3,0.818068729,99,0,0.711810619,x,0.5897,0,147,147,147,1,0.711810619,0.298461205,0.595997484,0.445300194,FALSE,,,,,,,,,,,,,,,,,,,,,,,,,,,,,,,,,
GOSH_A10,2023-11-10_10h40.56.593,two_step_task_legacy,2022.2.4,Win32,59.35774915,4,learning,0,resources/alien1_norm.png,0.687823782,resources/alien2_norm.png,0.306984466,TRUE,TRUE,3,0.620293,red,m,0.2205,alien2,TRUE,2,0.255464799,100,1,0.306984466,m,0.6678,0,148,148,148,1,0.687823782,0.306984466,0.600330442,0.429892682,FALSE,,,,,,,,,,,,,,,,,,,,,,,,,,,,,,,,,
GOSH_A10,2023-11-10_10h40.56.593,two_step_task_legacy,2022.2.4,Win32,59.35774915,4,learning,1,resources/alien3_norm.png,0.630930916,resources/alien4_norm.png,0.426929955,TRUE,TRUE,2,0.915936257,purple,m,0.2187,alien3,TRUE,2,0.109480109,101,1,0.630930916,x,0.854,0,149,149,149,1,0.68869481,0.319584149,0.630930916,0.426929955,FALSE,,,,,,,,,,,,,,,,,,,,,,,,,,,,,,,,,
GOSH_A10,2023-11-10_10h40.56.593,two_step_task_legacy,2022.2.4,Win32,59.35774915,4,learning,0,resources/alien1_norm.png,0.7,resources/alien2_norm.png,0.3,TRUE,TRUE,3,0.079717384,red,m,0.183,alien2,TRUE,3,0.348629036,101,0,0.3,m,0.4991,0,150,150,150,1,0.7,0.3,0.6,0.4,FALSE,,,,,,,,,,,,,,,,,,,,,,,,,,,,,,,,,
GOSH_A10,2023-11-10_10h40.56.593,two_step_task_legacy,2022.2.4,Win32,59.35774915,4,learning,0,resources/alien3_norm.png,0.6,resources/alien4_norm.png,0.4,TRUE,TRUE,2,0.159156847,purple,x,0.2505,alien4,TRUE,3,0.772373283,101,0,0.4,m,0.5591,0,151,151,151,1,0.7,0.3,0.6,0.4,FALSE,,,,,,,,,,,,,,,,,,,,,,,,,,,,,,,,,
GOSH_A10,2023-11-10_10h40.56.593,two_step_task_legacy,2022.2.4,Win32,59.35774915,4,learning,0,resources/alien4_norm.png,0.4,resources/alien3_norm.png,0.6,TRUE,TRUE,2,0.047962174,purple,x,0.2532,alien4,TRUE,3,0.496381368,101,0,0.4,x,0.2724,0,152,152,152,1,0.7,0.3,0.6,0.4,TRUE,,,,,,,,,,,,,,,,,,,,,,,,,,,,,,,,,
GOSH_A10,2023-11-10_10h40.56.593,two_step_task_legacy,2022.2.4,Win32,59.35774915,4,learning,1,resources/alien1_norm.png,0.7,resources/alien2_norm.png,0.3,TRUE,TRUE,3,0.822605685,red,x,0.2281,alien2,TRUE,3,0.967200083,101,0,0.3,m,0.8224,0,153,153,153,1,0.7,0.3,0.6,0.4,FALSE,,,,,,,,,,,,,,,,,,,,,,,,,,,,,,,,,
GOSH_A10,2023-11-10_10h40.56.593,two_step_task_legacy,2022.2.4,Win32,59.35774915,4,learning,1,resources/alien1_norm.png,0.7,resources/alien2_norm.png,0.3,TRUE,TRUE,3,0.852280974,red,x,0.2005,alien1,TRUE,2,0.026419421,102,1,0.7,x,0.8752,0,154,154,154,1,0.7,0.3,0.6,0.4,FALSE,,,,,,,,,,,,,,,,,,,,,,,,,,,,,,,,,
GOSH_A10,2023-11-10_10h40.56.593,two_step_task_legacy,2022.2.4,Win32,59.35774915,4,learning,1,resources/alien2_norm.png,0.3,resources/alien1_norm.png,0.7,TRUE,TRUE,3,0.708765794,red,x,0.2244,alien1,TRUE,2,0.503265882,103,1,0.7,m,0.6449,0,155,155,155,1,0.7,0.3,0.6,0.4,TRUE,,,,,,,,,,,,,,,,,,,,,,,,,,,,,,,,,
GOSH_A10,2023-11-10_10h40.56.593,two_step_task_legacy,2022.2.4,Win32,59.35774915,4,learning,0,resources/alien4_norm.png,0.4,resources/alien3_norm.png,0.6,TRUE,TRUE,2,0.368339827,purple,x,0.2312,alien3,TRUE,3,0.667816336,103,0,0.6,m,0.8661,0,156,156,156,1,0.7,0.3,0.6,0.4,TRUE,,,,,,,,,,,,,,,,,,,,,,,,,,,,,,,,,
GOSH_A10,2023-11-10_10h40.56.593,two_step_task_legacy,2022.2.4,Win32,59.35774915,4,learning,0,resources/alien2_norm.png,0.3,resources/alien1_norm.png,0.7,TRUE,TRUE,3,0.369727452,red,m,0.0738,alien1,TRUE,2,0.026036018,104,1,0.7,m,0.7324,0,157,157,157,1,0.7,0.3,0.6,0.4,TRUE,,,,,,,,,,,,,,,,,,,,,,,,,,,,,,,,,
GOSH_A10,2023-11-10_10h40.56.593,two_step_task_legacy,2022.2.4,Win32,59.35774915,4,learning,1,resources/alien4_norm.png,0.4,resources/alien3_norm.png,0.6,TRUE,TRUE,2,0.802882741,purple,m,0.2331,alien4,TRUE,3,0.595952431,104,0,0.4,x,0.8707,0,158,158,158,1,0.7,0.3,0.6,0.4,TRUE,,,,,,,,,,,,,,,,,,,,,,,,,,,,,,,,,
GOSH_A10,2023-11-10_10h40.56.593,two_step_task_legacy,2022.2.4,Win32,59.35774915,4,learning,0,resources/alien1_norm.png,0.7,resources/alien2_norm.png,0.3,TRUE,TRUE,3,0.321741823,red,m,0.0511,alien2,TRUE,3,0.456532691,104,0,0.3,m,0.2822,0,159,159,159,1,0.7,0.3,0.6,0.4,FALSE,,,,,,,,,,,,,,,,,,,,,,,,,,,,,,,,,
GOSH_A10,2023-11-10_10h40.56.593,two_step_task_legacy,2022.2.4,Win32,59.35774915,4,learning,0,resources/alien2_norm.png,0.3,resources/alien1_norm.png,0.7,TRUE,TRUE,3,0.633909598,red,m,0.2163,alien2,TRUE,3,0.684820232,104,0,0.3,x,0.2784,0,160,160,160,1,0.7,0.3,0.6,0.4,TRUE,,,,,,,,,,,,,,,,,,,,,,,,,,,,,,,,,
GOSH_A10,2023-11-10_10h40.56.593,two_step_task_legacy,2022.2.4,Win32,59.35774915,4,learning,0,resources/alien2_norm.png,0.3,resources/alien1_norm.png,0.7,TRUE,TRUE,3,0.068001403,red,m,0.4264,alien1,TRUE,2,0.686304339,105,1,0.7,m,0.4016,0,161,161,161,1,0.7,0.3,0.6,0.4,TRUE,,,,,,,,,,,,,,,,,,,,,,,,,,,,,,,,,
GOSH_A10,2023-11-10_10h40.56.593,two_step_task_legacy,2022.2.4,Win32,59.35774915,4,learning,0,resources/alien1_norm.png,0.7,resources/alien2_norm.png,0.3,TRUE,TRUE,3,0.092815955,red,m,0.2647,alien1,TRUE,3,0.863877463,105,0,0.7,x,0.526,0,162,162,162,1,0.7,0.3,0.6,0.4,FALSE,,,,,,,,,,,,,,,,,,,,,,,,,,,,,,,,,
GOSH_A10,2023-11-10_10h40.56.593,two_step_task_legacy,2022.2.4,Win32,59.35774915,4,learning,1,resources/alien1_norm.png,0.7,resources/alien2_norm.png,0.3,TRUE,TRUE,3,0.926959056,red,x,0.2449,alien1,TRUE,2,0.552491395,106,1,0.7,x,1.0955,0,163,163,163,1,0.7,0.3,0.6,0.4,FALSE,,,,,,,,,,,,,,,,,,,,,,,,,,,,,,,,,
GOSH_A10,2023-11-10_10h40.56.593,two_step_task_legacy,2022.2.4,Win32,59.35774915,4,learning,0,resources/alien3_norm.png,0.6,resources/alien4_norm.png,0.4,TRUE,TRUE,2,0.453891048,purple,x,0.3051,alien3,TRUE,3,0.895449175,106,0,0.6,x,0.7389,0,164,164,164,1,0.7,0.3,0.6,0.4,FALSE,,,,,,,,,,,,,,,,,,,,,,,,,,,,,,,,,
GOSH_A10,2023-11-10_10h40.56.593,two_step_task_legacy,2022.2.4,Win32,59.35774915,4,learning,1,resources/alien1_norm.png,0.7,resources/alien2_norm.png,0.3,TRUE,TRUE,3,0.929938256,red,x,0.2412,alien1,TRUE,3,0.996042128,106,0,0.7,x,0.6417,0,165,165,165,1,0.7,0.3,0.6,0.4,FALSE,,,,,,,,,,,,,,,,,,,,,,,,,,,,,,,,,
GOSH_A10,2023-11-10_10h40.56.593,two_step_task_legacy,2022.2.4,Win32,59.35774915,4,learning,0,resources/alien3_norm.png,0.6,resources/alien4_norm.png,0.4,TRUE,TRUE,2,0.514386842,purple,x,0.227,alien4,TRUE,2,0.054714972,107,1,0.4,m,0.4359,0,166,166,166,1,0.7,0.3,0.6,0.4,FALSE,,,,,,,,,,,,,,,,,,,,,,,,,,,,,,,,,
GOSH_A10,2023-11-10_10h40.56.593,two_step_task_legacy,2022.2.4,Win32,59.35774915,4,learning,0,resources/alien4_norm.png,0.4,resources/alien3_norm.png,0.6,TRUE,TRUE,2,0.144500334,purple,x,0.2498,alien4,TRUE,3,0.787505375,107,0,0.4,x,0.467,0,167,167,167,1,0.7,0.3,0.6,0.4,TRUE,,,,,,,,,,,,,,,,,,,,,,,,,,,,,,,,,
GOSH_A10,2023-11-10_10h40.56.593,two_step_task_legacy,2022.2.4,Win32,59.35774915,4,learning,1,resources/alien2_norm.png,0.3,resources/alien1_norm.png,0.7,TRUE,TRUE,3,0.985957869,red,x,0.1333,alien1,TRUE,2,0.389178793,108,1,0.7,m,0.7173,0,168,168,168,1,0.7,0.3,0.6,0.4,TRUE,,,,,,,,,,,,,,,,,,,,,,,,,,,,,,,,,
GOSH_A10,2023-11-10_10h40.56.593,two_step_task_legacy,2022.2.4,Win32,59.35774915,4,learning,1,resources/alien4_norm.png,0.4,resources/alien3_norm.png,0.6,TRUE,TRUE,2,0.836835657,purple,m,0.1008,alien4,TRUE,3,0.79121679,108,0,0.4,x,0.7202,0,169,169,169,1,0.7,0.3,0.6,0.4,TRUE,,,,,,,,,,,,,,,,,,,,,,,,,,,,,,,,,
GOSH_A10,2023-11-10_10h40.56.593,two_step_task_legacy,2022.2.4,Win32,59.35774915,4,learning,0,resources/alien1_norm.png,0.7,resources/alien2_norm.png,0.3,TRUE,TRUE,3,0.562051722,red,m,0.0641,alien1,TRUE,2,0.039289511,109,1,0.7,x,0.6667,0,170,170,170,1,0.7,0.3,0.6,0.4,FALSE,,,,,,,,,,,,,,,,,,,,,,,,,,,,,,,,,
GOSH_A10,2023-11-10_10h40.56.593,two_step_task_legacy,2022.2.4,Win32,59.35774915,4,learning,1,resources/alien3_norm.png,0.6,resources/alien4_norm.png,0.4,TRUE,TRUE,2,0.800630723,purple,m,0.2395,alien4,TRUE,2,0.231240868,110,1,0.4,m,0.7278,0,171,171,171,1,0.7,0.3,0.6,0.4,FALSE,,,,,,,,,,,,,,,,,,,,,,,,,,,,,,,,,
GOSH_A10,2023-11-10_10h40.56.593,two_step_task_legacy,2022.2.4,Win32,59.35774915,4,learning,0,resources/alien2_norm.png,0.3,resources/alien1_norm.png,0.7,TRUE,TRUE,3,0.218900062,red,m,0.2288,alien1,TRUE,2,0.519556466,111,1,0.7,m,0.5491,0,172,172,172,1,0.7,0.3,0.6,0.4,TRUE,,,,,,,,,,,,,,,,,,,,,,,,,,,,,,,,,
GOSH_A10,2023-11-10_10h40.56.593,two_step_task_legacy,2022.2.4,Win32,59.35774915,4,learning,1,resources/alien3_norm.png,0.6,resources/alien4_norm.png,0.4,TRUE,TRUE,2,0.941511786,purple,m,0.2164,alien4,TRUE,2,0.315260666,112,1,0.4,m,0.4468,0,173,173,173,1,0.7,0.3,0.6,0.4,FALSE,,,,,,,,,,,,,,,,,,,,,,,,,,,,,,,,,
GOSH_A10,2023-11-10_10h40.56.593,two_step_task_legacy,2022.2.4,Win32,59.35774915,4,learning,0,resources/alien1_norm.png,0.7,resources/alien2_norm.png,0.3,TRUE,TRUE,3,0.260300742,red,m,0.0938,alien1,TRUE,3,0.854693387,112,0,0.7,x,0.6218,0,174,174,174,1,0.7,0.3,0.6,0.4,FALSE,,,,,,,,,,,,,,,,,,,,,,,,,,,,,,,,,
GOSH_A10,2023-11-10_10h40.56.593,two_step_task_legacy,2022.2.4,Win32,59.35774915,4,learning,1,resources/alien3_norm.png,0.6,resources/alien4_norm.png,0.4,TRUE,TRUE,2,0.899152695,purple,m,0.2095,alien4,TRUE,2,0.246239306,113,1,0.4,m,0.5183,0,175,175,175,1,0.7,0.3,0.6,0.4,FALSE,,,,,,,,,,,,,,,,,,,,,,,,,,,,,,,,,
GOSH_A10,2023-11-10_10h40.56.593,two_step_task_legacy,2022.2.4,Win32,59.35774915,4,learning,0,resources/alien1_norm.png,0.7,resources/alien2_norm.png,0.3,TRUE,TRUE,3,0.436154927,red,m,0.1281,alien1,TRUE,2,0.504277089,114,1,0.7,x,0.5231,0,176,176,176,1,0.7,0.3,0.6,0.4,FALSE,,,,,,,,,,,,,,,,,,,,,,,,,,,,,,,,,
GOSH_A10,2023-11-10_10h40.56.593,two_step_task_legacy,2022.2.4,Win32,59.35774915,4,learning,0,resources/alien2_norm.png,0.3,resources/alien1_norm.png,0.7,TRUE,TRUE,3,0.064866184,red,m,0.4388,alien1,TRUE,3,0.962346364,114,0,0.7,m,0.657,0,177,177,177,1,0.7,0.3,0.6,0.4,TRUE,,,,,,,,,,,,,,,,,,,,,,,,,,,,,,,,,
GOSH_A10,2023-11-10_10h40.56.593,two_step_task_legacy,2022.2.4,Win32,59.35774915,4,learning,0,resources/alien4_norm.png,0.4,resources/alien3_norm.png,0.6,TRUE,TRUE,2,0.187432621,purple,x,0.2245,alien4,TRUE,2,0.167253369,115,1,0.4,x,0.4835,0,178,178,178,1,0.7,0.3,0.6,0.4,TRUE,,,,,,,,,,,,,,,,,,,,,,,,,,,,,,,,,
GOSH_A10,2023-11-10_10h40.56.593,two_step_task_legacy,2022.2.4,Win32,59.35774915,4,learning,0,resources/alien4_norm.png,0.4,resources/alien3_norm.png,0.6,TRUE,TRUE,2,0.04718018,purple,x,0.1006,alien4,TRUE,3,0.508320885,115,0,0.4,x,0.5622,0,179,179,179,1,0.7,0.3,0.6,0.4,TRUE,,,,,,,,,,,,,,,,,,,,,,,,,,,,,,,,,
GOSH_A10,2023-11-10_10h40.56.593,two_step_task_legacy,2022.2.4,Win32,59.35774915,4,learning,0,resources/alien4_norm.png,0.4,resources/alien3_norm.png,0.6,TRUE,TRUE,2,0.055823386,purple,x,0.2271,alien3,TRUE,2,0.124455402,116,1,0.6,m,0.3598,0,180,180,180,1,0.7,0.3,0.6,0.4,TRUE,,,,,,,,,,,,,,,,,,,,,,,,,,,,,,,,,
GOSH_A10,2023-11-10_10h40.56.593,two_step_task_legacy,2022.2.4,Win32,59.35774915,4,learning,1,resources/alien1_norm.png,0.7,resources/alien2_norm.png,0.3,TRUE,TRUE,3,0.895889992,red,x,0.2203,alien1,TRUE,2,0.080476872,117,1,0.7,x,0.9236,0,181,181,181,1,0.7,0.3,0.6,0.4,FALSE,,,,,,,,,,,,,,,,,,,,,,,,,,,,,,,,,
GOSH_A10,2023-11-10_10h40.56.593,two_step_task_legacy,2022.2.4,Win32,59.35774915,4,learning,0,resources/alien3_norm.png,0.6,resources/alien4_norm.png,0.4,TRUE,TRUE,2,0.080337989,purple,x,0.2908,alien4,TRUE,2,0.044102555,118,1,0.4,m,0.423,0,182,182,182,1,0.7,0.3,0.6,0.4,FALSE,,,,,,,,,,,,,,,,,,,,,,,,,,,,,,,,,
GOSH_A10,2023-11-10_10h40.56.593,two_step_task_legacy,2022.2.4,Win32,59.35774915,4,learning,0,resources/alien3_norm.png,0.6,resources/alien4_norm.png,0.4,TRUE,TRUE,2,0.001781359,purple,x,0.1274,alien3,TRUE,3,0.885244359,118,0,0.6,x,0.7856,0,183,183,183,1,0.7,0.3,0.6,0.4,FALSE,,,,,,,,,,,,,,,,,,,,,,,,,,,,,,,,,
GOSH_A10,2023-11-10_10h40.56.593,two_step_task_legacy,2022.2.4,Win32,59.35774915,4,learning,0,resources/alien4_norm.png,0.4,resources/alien3_norm.png,0.6,TRUE,TRUE,2,0.335853662,purple,x,0.0051,alien4,TRUE,3,0.633150588,118,0,0.4,x,0.6795,0,184,184,184,1,0.7,0.3,0.6,0.4,TRUE,,,,,,,,,,,,,,,,,,,,,,,,,,,,,,,,,
GOSH_A10,2023-11-10_10h40.56.593,two_step_task_legacy,2022.2.4,Win32,59.35774915,4,learning,0,resources/alien2_norm.png,0.3,resources/alien1_norm.png,0.7,TRUE,TRUE,3,0.011048193,red,m,0.183,alien1,TRUE,2,0.67965973,119,1,0.7,m,0.5,0,185,185,185,1,0.7,0.3,0.6,0.4,TRUE,,,,,,,,,,,,,,,,,,,,,,,,,,,,,,,,,
GOSH_A10,2023-11-10_10h40.56.593,two_step_task_legacy,2022.2.4,Win32,59.35774915,4,learning,1,resources/alien3_norm.png,0.6,resources/alien4_norm.png,0.4,TRUE,TRUE,2,0.772032191,purple,m,0.2039,alien4,TRUE,3,0.885944193,119,0,0.4,m,0.912,0,186,186,186,1,0.7,0.3,0.6,0.4,FALSE,,,,,,,,,,,,,,,,,,,,,,,,,,,,,,,,,
GOSH_A10,2023-11-10_10h40.56.593,two_step_task_legacy,2022.2.4,Win32,59.35774915,4,learning,0,resources/alien2_norm.png,0.3,resources/alien1_norm.png,0.7,TRUE,TRUE,3,0.508643108,red,m,0.1613,alien1,TRUE,2,0.628059954,120,1,0.7,m,0.6493,0,187,187,187,1,0.7,0.3,0.6,0.4,TRUE,,,,,,,,,,,,,,,,,,,,,,,,,,,,,,,,,
GOSH_A10,2023-11-10_10h40.56.593,two_step_task_legacy,2022.2.4,Win32,59.35774915,4,learning,0,resources/alien1_norm.png,0.7,resources/alien2_norm.png,0.3,TRUE,TRUE,3,0.515961486,red,m,0.1203,alien1,TRUE,2,0.404806526,121,1,0.7,x,0.4872,0,188,188,188,1,0.7,0.3,0.6,0.4,FALSE,,,,,,,,,,,,,,,,,,,,,,,,,,,,,,,,,
GOSH_A10,2023-11-10_10h40.56.593,two_step_task_legacy,2022.2.4,Win32,59.35774915,4,learning,1,resources/alien4_norm.png,0.4,resources/alien3_norm.png,0.6,TRUE,TRUE,2,0.799571894,purple,m,0.1831,alien3,TRUE,3,0.707444563,121,0,0.6,m,1.0871,0,189,189,189,1,0.7,0.3,0.6,0.4,TRUE,,,,,,,,,,,,,,,,,,,,,,,,,,,,,,,,,
GOSH_A10,2023-11-10_10h40.56.593,two_step_task_legacy,2022.2.4,Win32,59.35774915,4,learning,0,resources/alien2_norm.png,0.3,resources/alien1_norm.png,0.7,TRUE,TRUE,3,0.507246968,red,m,0.2667,alien1,TRUE,2,0.599086604,122,1,0.7,m,0.7024,0,190,190,190,1,0.7,0.3,0.6,0.4,TRUE,,,,,,,,,,,,,,,,,,,,,,,,,,,,,,,,,
GOSH_A10,2023-11-10_10h40.56.593,two_step_task_legacy,2022.2.4,Win32,59.35774915,4,learning,0,resources/alien1_norm.png,0.7,resources/alien2_norm.png,0.3,TRUE,TRUE,3,0.691219289,red,m,0.2593,alien1,TRUE,2,0.195279433,123,1,0.7,x,0.4828,0,191,191,191,1,0.7,0.3,0.6,0.4,FALSE,,,,,,,,,,,,,,,,,,,,,,,,,,,,,,,,,
GOSH_A10,2023-11-10_10h40.56.593,two_step_task_legacy,2022.2.4,Win32,59.35774915,4,learning,0,resources/alien1_norm.png,0.7,resources/alien2_norm.png,0.3,TRUE,TRUE,3,0.165850749,red,m,0.1313,alien1,TRUE,2,0.238500375,124,1,0.7,x,0.4894,0,192,192,192,1,0.7,0.3,0.6,0.4,FALSE,,,,,,,,,,,,,,,,,,,,,,,,,,,,,,,,,
GOSH_A10,2023-11-10_10h40.56.593,two_step_task_legacy,2022.2.4,Win32,59.35774915,4,learning,1,resources/alien3_norm.png,0.6,resources/alien4_norm.png,0.4,TRUE,TRUE,2,0.873376105,purple,m,0.2356,alien4,TRUE,2,0.247579916,125,1,0.4,m,0.7827,0,193,193,193,1,0.7,0.3,0.6,0.4,FALSE,,,,,,,,,,,,,,,,,,,,,,,,,,,,,,,,,
GOSH_A10,2023-11-10_10h40.56.593,two_step_task_legacy,2022.2.4,Win32,59.35774915,4,learning,0,resources/alien2_norm.png,0.3,resources/alien1_norm.png,0.7,TRUE,TRUE,3,0.216794234,red,m,0.2069,alien1,TRUE,2,0.514587587,126,1,0.7,m,0.6088,0,194,194,194,1,0.7,0.3,0.6,0.4,TRUE,,,,,,,,,,,,,,,,,,,,,,,,,,,,,,,,,
GOSH_A10,2023-11-10_10h40.56.593,two_step_task_legacy,2022.2.4,Win32,59.35774915,4,learning,0,resources/alien2_norm.png,0.3,resources/alien1_norm.png,0.7,TRUE,TRUE,3,0.683579457,red,m,0.0579,alien1,TRUE,2,0.23725737,127,1,0.7,m,0.5829,0,195,195,195,1,0.7,0.3,0.6,0.4,TRUE,,,,,,,,,,,,,,,,,,,,,,,,,,,,,,,,,
GOSH_A10,2023-11-10_10h40.56.593,two_step_task_legacy,2022.2.4,Win32,59.35774915,4,learning,1,resources/alien4_norm.png,0.4,resources/alien3_norm.png,0.6,TRUE,TRUE,2,0.882607752,purple,m,0.2026,alien3,TRUE,3,0.911526704,127,0,0.6,m,1.106,0,196,196,196,1,0.7,0.3,0.6,0.4,TRUE,,,,,,,,,,,,,,,,,,,,,,,,,,,,,,,,,
GOSH_A10,2023-11-10_10h40.56.593,two_step_task_legacy,2022.2.4,Win32,59.35774915,4,learning,0,resources/alien2_norm.png,0.3,resources/alien1_norm.png,0.7,TRUE,TRUE,3,0.624624561,red,m,0.145,alien1,TRUE,2,0.017586046,128,1,0.7,m,0.6244,0,197,197,197,1,0.7,0.3,0.6,0.4,TRUE,,,,,,,,,,,,,,,,,,,,,,,,,,,,,,,,,
GOSH_A10,2023-11-10_10h40.56.593,two_step_task_legacy,2022.2.4,Win32,59.35774915,4,learning,0,resources/alien1_norm.png,0.7,resources/alien2_norm.png,0.3,TRUE,TRUE,3,0.380040047,red,m,0.0769,alien1,TRUE,2,0.27348532,129,1,0.7,x,0.5353,0,198,198,198,1,0.7,0.3,0.6,0.4,FALSE,,,,,,,,,,,,,,,,,,,,,,,,,,,,,,,,,
GOSH_A10,2023-11-10_10h40.56.593,two_step_task_legacy,2022.2.4,Win32,59.35774915,4,learning,1,resources/alien3_norm.png,0.6,resources/alien4_norm.png,0.4,TRUE,TRUE,2,0.80452167,purple,m,0.0006,alien3,TRUE,3,0.819769901,129,0,0.6,x,1.0171,0,199,199,199,1,0.7,0.3,0.6,0.4,FALSE,,,,,,,,,,,,,,,,,,,,,,,,,,,,,,,,,
GOSH_A10,2023-11-10_10h40.56.593,two_step_task_legacy,2022.2.4,Win32,59.35774915,4,learning,0,resources/alien1_norm.png,0.7,resources/alien2_norm.png,0.3,TRUE,TRUE,3,0.092482215,red,m,0.0004,alien1,TRUE,2,0.677570393,130,1,0.7,x,0.5961,0,200,200,200,1,0.7,0.3,0.6,0.4,FALSE,,,,,,,,,,,,,,,,,,,,,,,,,,,,,,,,,
GOSH_A10,2023-11-10_10h40.56.593,two_step_task_legacy,2022.2.4,Win32,59.35774915,4,learning,0,resources/alien1_norm.png,0.7,resources/alien2_norm.png,0.3,TRUE,TRUE,3,0.684161316,red,m,0.4113,alien1,TRUE,2,0.42739623,131,1,0.7,x,0.7538,0,201,201,201,1,0.7,0.3,0.6,0.4,FALSE,,,,,,,,,,,,,,,,,,,,,,,,,,,,,,,,,
GOSH_A10,2023-11-10_10h40.56.593,two_step_task_legacy,2022.2.4,Win32,59.35774915,4,learning,0,resources/alien2_norm.png,0.3,resources/alien1_norm.png,0.7,TRUE,TRUE,3,0.122065409,red,m,0.0602,alien1,TRUE,2,0.170866531,132,1,0.7,m,0.5344,0,202,202,202,1,0.7,0.3,0.6,0.4,TRUE,,,,,,,,,,,,,,,,,,,,,,,,,,,,,,,,,
GOSH_A10,2023-11-10_10h40.56.593,two_step_task_legacy,2022.2.4,Win32,59.35774915,4,learning,0,resources/alien1_norm.png,0.7,resources/alien2_norm.png,0.3,TRUE,TRUE,3,0.015875839,red,m,0.5635,alien1,TRUE,3,0.879051543,132,0,0.7,x,0.5075,0,203,203,203,1,0.7,0.3,0.6,0.4,FALSE,,,,,,,,,,,,,,,,,,,,,,,,,,,,,,,,,
GOSH_A10,2023-11-10_10h40.56.593,two_step_task_legacy,2022.2.4,Win32,59.35774915,4,learning,1,resources/alien4_norm.png,0.4,resources/alien3_norm.png,0.6,TRUE,TRUE,2,0.847114592,purple,m,0.1918,alien3,TRUE,2,0.226227403,133,1,0.6,m,0.7672,0,204,204,204,1,0.7,0.3,0.6,0.4,TRUE,,,,,,,,,,,,,,,,,,,,,,,,,,,,,,,,,
GOSH_A10,2023-11-10_10h40.56.593,two_step_task_legacy,2022.2.4,Win32,59.35774915,4,learning,1,resources/alien3_norm.png,0.6,resources/alien4_norm.png,0.4,TRUE,TRUE,2,0.923878915,purple,m,0.1673,alien3,TRUE,3,0.674732623,133,0,0.6,x,1.0298,0,205,205,205,1,0.7,0.3,0.6,0.4,FALSE,,,,,,,,,,,,,,,,,,,,,,,,,,,,,,,,,
GOSH_A10,2023-11-10_10h40.56.593,two_step_task_legacy,2022.2.4,Win32,59.35774915,4,learning,1,resources/alien3_norm.png,0.6,resources/alien4_norm.png,0.4,TRUE,TRUE,2,0.963736619,purple,m,0.0172,alien3,TRUE,2,0.343687779,134,1,0.6,x,0.9279,0,206,206,206,1,0.7,0.3,0.6,0.4,FALSE,,,,,,,,,,,,,,,,,,,,,,,,,,,,,,,,,
GOSH_A10,2023-11-10_10h40.56.593,two_step_task_legacy,2022.2.4,Win32,59.35774915,4,learning,0,resources/alien1_norm.png,0.7,resources/alien2_norm.png,0.3,TRUE,TRUE,3,0.661639456,red,m,0.1741,alien1,TRUE,2,0.171380381,135,1,0.7,x,0.5222,0,207,207,207,1,0.7,0.3,0.6,0.4,FALSE,,,,,,,,,,,,,,,,,,,,,,,,,,,,,,,,,
GOSH_A10,2023-11-10_10h40.56.593,two_step_task_legacy,2022.2.4,Win32,59.35774915,4,learning,1,resources/alien4_norm.png,0.4,resources/alien3_norm.png,0.6,TRUE,TRUE,2,0.80075661,purple,m,0.1981,alien3,TRUE,2,0.375821892,136,1,0.6,m,0.9078,0,208,208,208,1,0.7,0.3,0.6,0.4,TRUE,,,,,,,,,,,,,,,,,,,,,,,,,,,,,,,,,
GOSH_A10,2023-11-10_10h40.56.593,two_step_task_legacy,2022.2.4,Win32,59.35774915,4,learning,0,resources/alien2_norm.png,0.3,resources/alien1_norm.png,0.7,TRUE,TRUE,3,0.584033158,red,m,0.2737,alien1,TRUE,2,0.2606326,137,1,0.7,m,0.6672,0,209,209,209,1,0.7,0.3,0.6,0.4,TRUE,,,,,,,,,,,,,,,,,,,,,,,,,,,,,,,,,
GOSH_A10,2023-11-10_10h40.56.593,two_step_task_legacy,2022.2.4,Win32,59.35774915,4,learning,0,resources/alien2_norm.png,0.3,resources/alien1_norm.png,0.7,TRUE,TRUE,3,0.052347762,red,m,0.218,alien1,TRUE,2,0.441583782,138,1,0.7,m,0.5297,0,210,210,210,1,0.7,0.3,0.6,0.4,TRUE,,,,,,,,,,,,,,,,,,,,,,,,,,,,,,,,,
GOSH_A10,2023-11-10_10h40.56.593,two_step_task_legacy,2022.2.4,Win32,59.35774915,4,learning,1,resources/alien4_norm.png,0.4,resources/alien3_norm.png,0.6,TRUE,TRUE,2,0.892401051,purple,m,0.2394,alien3,TRUE,2,0.530412563,139,1,0.6,m,0.8505,0,211,211,211,1,0.7,0.3,0.6,0.4,TRUE,,,,,,,,,,,,,,,,,,,,,,,,,,,,,,,,,
GOSH_A10,2023-11-10_10h40.56.593,two_step_task_legacy,2022.2.4,Win32,59.35774915,4,learning,0,resources/alien2_norm.png,0.3,resources/alien1_norm.png,0.7,TRUE,TRUE,3,0.168259655,red,m,0.2172,alien1,TRUE,2,0.491104581,140,1,0.7,m,0.4694,0,212,212,212,1,0.7,0.3,0.6,0.4,TRUE,,,,,,,,,,,,,,,,,,,,,,,,,,,,,,,,,
GOSH_A10,2023-11-10_10h40.56.593,two_step_task_legacy,2022.2.4,Win32,59.35774915,4,learning,0,resources/alien2_norm.png,0.3,resources/alien1_norm.png,0.7,TRUE,TRUE,3,0.656620502,red,m,0.2381,alien1,TRUE,2,0.140719407,141,1,0.7,m,0.4902,0,213,213,213,1,0.7,0.3,0.6,0.4,TRUE,,,,,,,,,,,,,,,,,,,,,,,,,,,,,,,,,
GOSH_A10,2023-11-10_10h40.56.593,two_step_task_legacy,2022.2.4,Win32,59.35774915,4,learning,0,resources/alien2_norm.png,0.3,resources/alien1_norm.png,0.7,TRUE,TRUE,3,0.096730421,red,m,0.2263,alien1,TRUE,2,0.672712036,142,1,0.7,m,0.5792,0,214,214,214,1,0.7,0.3,0.6,0.4,TRUE,,,,,,,,,,,,,,,,,,,,,,,,,,,,,,,,,
GOSH_A10,2023-11-10_10h40.56.593,two_step_task_legacy,2022.2.4,Win32,59.35774915,4,learning,0,resources/alien2_norm.png,0.3,resources/alien1_norm.png,0.7,TRUE,TRUE,3,0.258287187,red,m,0.1549,alien1,TRUE,2,0.644112979,143,1,0.7,m,0.4007,0,215,215,215,1,0.7,0.3,0.6,0.4,TRUE,,,,,,,,,,,,,,,,,,,,,,,,,,,,,,,,,
GOSH_A10,2023-11-10_10h40.56.593,two_step_task_legacy,2022.2.4,Win32,59.35774915,4,learning,0,resources/alien2_norm.png,0.3,resources/alien1_norm.png,0.7,TRUE,TRUE,3,0.484723044,red,m,0.2061,alien1,TRUE,2,0.129845497,144,1,0.7,m,0.4386,0,216,216,216,1,0.7,0.3,0.6,0.4,TRUE,,,,,,,,,,,,,,,,,,,,,,,,,,,,,,,,,
GOSH_A10,2023-11-10_10h40.56.593,two_step_task_legacy,2022.2.4,Win32,59.35774915,4,learning,0,resources/alien1_norm.png,0.7,resources/alien2_norm.png,0.3,TRUE,TRUE,3,0.304912695,red,m,0.1164,alien1,TRUE,3,0.73364077,144,0,0.7,x,0.457,0,217,217,217,1,0.7,0.3,0.6,0.4,FALSE,,,,,,,,,,,,,,,,,,,,,,,,,,,,,,,,,
GOSH_A10,2023-11-10_10h40.56.593,two_step_task_legacy,2022.2.4,Win32,59.35774915,4,learning,1,resources/alien4_norm.png,0.4,resources/alien3_norm.png,0.6,TRUE,TRUE,2,0.71869293,purple,m,0.5775,alien3,TRUE,2,0.518351142,145,1,0.6,m,0.5882,0,218,218,218,1,0.7,0.3,0.6,0.4,TRUE,,,,,,,,,,,,,,,,,,,,,,,,,,,,,,,,,
GOSH_A10,2023-11-10_10h40.56.593,two_step_task_legacy,2022.2.4,Win32,59.35774915,4,learning,0,resources/alien2_norm.png,0.3,resources/alien1_norm.png,0.7,TRUE,TRUE,3,0.159735931,red,m,0.1023,alien1,TRUE,2,0.623738194,146,1,0.7,m,0.4833,0,219,219,219,1,0.7,0.3,0.6,0.4,TRUE,,,,,,,,,,,,,,,,,,,,,,,,,,,,,,,,,
GOSH_A10,2023-11-10_10h40.56.593,two_step_task_legacy,2022.2.4,Win32,59.35774915,4,learning,0,resources/alien2_norm.png,0.3,resources/alien1_norm.png,0.7,TRUE,TRUE,3,0.397453287,red,m,0.1559,alien1,TRUE,2,0.657242575,147,1,0.7,m,0.4236,0,220,220,220,1,0.7,0.3,0.6,0.4,TRUE,,,,,,,,,,,,,,,,,,,,,,,,,,,,,,,,,
GOSH_A10,2023-11-10_10h40.56.593,two_step_task_legacy,2022.2.4,Win32,59.35774915,4,learning,0,resources/alien2_norm.png,0.3,resources/alien1_norm.png,0.7,TRUE,TRUE,3,0.405977209,red,m,0.1891,alien1,TRUE,2,0.52412716,148,1,0.7,m,0.3841,0,221,221,221,1,0.7,0.3,0.6,0.4,TRUE,,,,,,,,,,,,,,,,,,,,,,,,,,,,,,,,,
GOSH_A10,2023-11-10_10h40.56.593,two_step_task_legacy,2022.2.4,Win32,59.35774915,4,learning,1,resources/alien3_norm.png,0.6,resources/alien4_norm.png,0.4,TRUE,TRUE,2,0.740245266,purple,m,0.0006,alien3,TRUE,2,0.460500158,149,1,0.6,x,0.6551,0,222,222,222,1,0.7,0.3,0.6,0.4,FALSE,,,,,,,,,,,,,,,,,,,,,,,,,,,,,,,,,
GOSH_A10,2023-11-10_10h40.56.593,two_step_task_legacy,2022.2.4,Win32,59.35774915,4,learning,1,resources/alien3_norm.png,0.6,resources/alien4_norm.png,0.4,TRUE,TRUE,2,0.786915303,purple,m,0.1003,alien3,TRUE,2,0.031471817,150,1,0.6,x,0.45,0,223,223,223,1,0.7,0.3,0.6,0.4,FALSE,,,,,,,,,,,,,,,,,,,,,,,,,,,,,,,,,
GOSH_A10,2023-11-10_10h40.56.593,two_step_task_legacy,2022.2.4,Win32,59.35774915,4,learning,1,resources/alien3_norm.png,0.6,resources/alien4_norm.png,0.4,TRUE,TRUE,2,0.815229159,purple,m,0.2611,alien3,TRUE,2,0.352965535,151,1,0.6,x,0.5676,0,224,224,224,1,0.7,0.3,0.6,0.4,FALSE,,,,,,,,,,,,,,,,,,,,,,,,,,,,,,,,,
GOSH_A10,2023-11-10_10h40.56.593,two_step_task_legacy,2022.2.4,Win32,59.35774915,4,learning,0,resources/alien2_norm.png,0.3,resources/alien1_norm.png,0.7,TRUE,TRUE,3,0.042193353,red,m,0.2172,alien1,TRUE,2,0.689648494,152,1,0.7,m,0.4931,0,225,225,225,1,0.7,0.3,0.6,0.4,TRUE,,,,,,,,,,,,,,,,,,,,,,,,,,,,,,,,,
GOSH_A10,2023-11-10_10h40.56.593,two_step_task_legacy,2022.2.4,Win32,59.35774915,4,learning,0,resources/alien1_norm.png,0.7,resources/alien2_norm.png,0.3,TRUE,TRUE,3,0.696493987,red,m,0.0643,alien1,TRUE,2,0.033180242,153,1,0.7,x,0.4921,0,226,226,226,1,0.7,0.3,0.6,0.4,FALSE,,,,,,,,,,,,,,,,,,,,,,,,,,,,,,,,,
GOSH_A10,2023-11-10_10h40.56.593,two_step_task_legacy,2022.2.4,Win32,59.35774915,4,learning,0,resources/alien2_norm.png,0.3,resources/alien1_norm.png,0.7,TRUE,TRUE,3,0.29213857,red,m,0.0273,alien1,TRUE,3,0.92671474,153,0,0.7,m,0.4901,0,227,227,227,1,0.7,0.3,0.6,0.4,TRUE,,,,,,,,,,,,,,,,,,,,,,,,,,,,,,,,,
GOSH_A10,2023-11-10_10h40.56.593,two_step_task_legacy,2022.2.4,Win32,59.35774915,4,learning,1,resources/alien4_norm.png,0.4,resources/alien3_norm.png,0.6,TRUE,TRUE,2,0.720343366,purple,m,0.3648,alien3,TRUE,3,0.646846883,153,0,0.6,m,0.7355,0,228,228,228,1,0.7,0.3,0.6,0.4,TRUE,,,,,,,,,,,,,,,,,,,,,,,,,,,,,,,,,
GOSH_A10,2023-11-10_10h40.56.593,two_step_task_legacy,2022.2.4,Win32,59.35774915,4,learning,0,resources/alien1_norm.png,0.7,resources/alien2_norm.png,0.3,TRUE,TRUE,3,0.140933421,red,m,0.0053,alien1,TRUE,2,0.644761579,154,1,0.7,x,0.4121,0,229,229,229,1,0.7,0.3,0.6,0.4,FALSE,,,,,,,,,,,,,,,,,,,,,,,,,,,,,,,,,
GOSH_A10,2023-11-10_10h40.56.593,two_step_task_legacy,2022.2.4,Win32,59.35774915,4,learning,1,resources/alien3_norm.png,0.6,resources/alien4_norm.png,0.4,TRUE,TRUE,2,0.726277378,purple,m,0.4168,alien3,TRUE,2,0.139208108,155,1,0.6,x,0.5696,0,230,230,230,1,0.7,0.3,0.6,0.4,FALSE,,,,,,,,,,,,,,,,,,,,,,,,,,,,,,,,,
GOSH_A10,2023-11-10_10h40.56.593,two_step_task_legacy,2022.2.4,Win32,59.35774915,4,learning,0,resources/alien1_norm.png,0.7,resources/alien2_norm.png,0.3,TRUE,TRUE,3,0.147640794,red,m,0.0683,alien1,TRUE,2,0.238651899,156,1,0.7,x,0.5225,0,231,231,231,1,0.7,0.3,0.6,0.4,FALSE,,,,,,,,,,,,,,,,,,,,,,,,,,,,,,,,,
GOSH_A10,2023-11-10_10h40.56.593,two_step_task_legacy,2022.2.4,Win32,59.35774915,4,learning,1,resources/alien4_norm.png,0.4,resources/alien3_norm.png,0.6,TRUE,TRUE,2,0.935909863,purple,m,0.1476,alien4,TRUE,3,0.830875876,156,0,0.4,x,0.4411,0,232,232,232,1,0.7,0.3,0.6,0.4,TRUE,,,,,,,,,,,,,,,,,,,,,,,,,,,,,,,,,
GOSH_A10,2023-11-10_10h40.56.593,two_step_task_legacy,2022.2.4,Win32,59.35774915,4,learning,0,resources/alien1_norm.png,0.7,resources/alien2_norm.png,0.3,TRUE,TRUE,3,0.435598413,red,m,0.0682,alien1,TRUE,2,0.551304723,157,1,0.7,x,0.4885,0,233,233,233,1,0.7,0.3,0.6,0.4,FALSE,,,,,,,,,,,,,,,,,,,,,,,,,,,,,,,,,
GOSH_A10,2023-11-10_10h40.56.593,two_step_task_legacy,2022.2.4,Win32,59.35774915,4,learning,1,resources/alien3_norm.png,0.6,resources/alien4_norm.png,0.4,TRUE,TRUE,2,0.865978032,purple,m,0.115,alien3,TRUE,2,0.377278231,158,1,0.6,x,0.5764,0,234,234,234,1,0.7,0.3,0.6,0.4,FALSE,,,,,,,,,,,,,,,,,,,,,,,,,,,,,,,,,
GOSH_A10,2023-11-10_10h40.56.593,two_step_task_legacy,2022.2.4,Win32,59.35774915,4,learning,0,resources/alien1_norm.png,0.7,resources/alien2_norm.png,0.3,TRUE,TRUE,3,0.40966938,red,m,0.0831,alien1,TRUE,2,0.487194712,159,1,0.7,x,0.3637,0,235,235,235,1,0.7,0.3,0.6,0.4,FALSE,,,,,,,,,,,,,,,,,,,,,,,,,,,,,,,,,
GOSH_A10,2023-11-10_10h40.56.593,two_step_task_legacy,2022.2.4,Win32,59.35774915,4,learning,0,resources/alien2_norm.png,0.3,resources/alien1_norm.png,0.7,TRUE,TRUE,3,0.21190633,red,m,0.2145,alien1,TRUE,2,0.150897553,160,1,0.7,m,0.4759,0,236,236,236,1,0.7,0.3,0.6,0.4,TRUE,,,,,,,,,,,,,,,,,,,,,,,,,,,,,,,,,
GOSH_A10,2023-11-10_10h40.56.593,two_step_task_legacy,2022.2.4,Win32,59.35774915,4,learning,1,resources/alien4_norm.png,0.4,resources/alien3_norm.png,0.6,TRUE,TRUE,2,0.714265782,purple,m,0.1931,alien4,TRUE,3,0.408858654,160,0,0.4,x,0.4868,0,237,237,237,1,0.7,0.3,0.6,0.4,TRUE,,,,,,,,,,,,,,,,,,,,,,,,,,,,,,,,,
GOSH_A10,2023-11-10_10h40.56.593,two_step_task_legacy,2022.2.4,Win32,59.35774915,4,learning,0,resources/alien2_norm.png,0.3,resources/alien1_norm.png,0.7,TRUE,TRUE,3,0.340926592,red,m,0.2814,alien1,TRUE,2,0.691336341,161,1,0.7,m,0.3666,0,238,238,238,1,0.7,0.3,0.6,0.4,TRUE,,,,,,,,,,,,,,,,,,,,,,,,,,,,,,,,,
GOSH_A10,2023-11-10_10h40.56.593,two_step_task_legacy,2022.2.4,Win32,59.35774915,4,learning,0,resources/alien1_norm.png,0.7,resources/alien2_norm.png,0.3,TRUE,TRUE,3,0.195186238,red,m,0.2416,alien1,TRUE,2,0.188538276,162,1,0.7,x,0.5786,0,239,239,239,1,0.7,0.3,0.6,0.4,FALSE,,,,,,,,,,,,,,,,,,,,,,,,,,,,,,,,,
GOSH_A10,2023-11-10_10h40.56.593,two_step_task_legacy,2022.2.4,Win32,59.35774915,4,learning,0,resources/alien1_norm.png,0.7,resources/alien2_norm.png,0.3,TRUE,TRUE,3,0.280494365,red,m,0.083,alien1,TRUE,2,0.449388148,163,1,0.7,x,0.5187,0,240,240,240,1,0.7,0.3,0.6,0.4,FALSE,,,,,,,,,,,,,,,,,,,,,,,,,,,,,,,,,
GOSH_A10,2023-11-10_10h40.56.593,two_step_task_legacy,2022.2.4,Win32,59.35774915,4,learning,1,resources/alien3_norm.png,0.6,resources/alien4_norm.png,0.4,TRUE,TRUE,2,0.793018341,purple,m,0.2343,alien3,TRUE,2,0.196586316,164,1,0.6,x,0.7494,0,241,241,241,1,0.7,0.3,0.6,0.4,FALSE,,,,,,,,,,,,,,,,,,,,,,,,,,,,,,,,,
GOSH_A10,2023-11-10_10h40.56.593,two_step_task_legacy,2022.2.4,Win32,59.35774915,4,learning,0,resources/alien1_norm.png,0.7,resources/alien2_norm.png,0.3,TRUE,TRUE,3,0.444999878,red,m,0.0461,alien1,TRUE,3,0.936197361,164,0,0.7,x,0.5283,0,242,242,242,1,0.7,0.3,0.6,0.4,FALSE,,,,,,,,,,,,,,,,,,,,,,,,,,,,,,,,,
GOSH_A10,2023-11-10_10h40.56.593,two_step_task_legacy,2022.2.4,Win32,59.35774915,4,learning,0,resources/alien2_norm.png,0.3,resources/alien1_norm.png,0.7,TRUE,TRUE,3,0.510489358,red,m,0.1431,alien1,TRUE,3,0.881444877,164,0,0.7,m,0.4664,0,243,243,243,1,0.7,0.3,0.6,0.4,TRUE,,,,,,,,,,,,,,,,,,,,,,,,,,,,,,,,,
GOSH_A10,2023-11-10_10h40.56.593,two_step_task_legacy,2022.2.4,Win32,59.35774915,4,learning,0,resources/alien4_norm.png,0.4,resources/alien3_norm.png,0.6,TRUE,TRUE,2,0.54070722,purple,x,0.3506,alien3,TRUE,2,0.25829639,165,1,0.6,m,1.2748,0,244,244,244,1,0.7,0.3,0.6,0.4,TRUE,,,,,,,,,,,,,,,,,,,,,,,,,,,,,,,,,
GOSH_A10,2023-11-10_10h40.56.593,two_step_task_legacy,2022.2.4,Win32,59.35774915,4,learning,0,resources/alien3_norm.png,0.6,resources/alien4_norm.png,0.4,TRUE,TRUE,2,0.049421044,purple,x,0.1674,alien3,TRUE,3,0.728021974,165,0,0.6,x,0.7231,0,245,245,245,1,0.7,0.3,0.6,0.4,FALSE,,,,,,,,,,,,,,,,,,,,,,,,,,,,,,,,,
GOSH_A10,2023-11-10_10h40.56.593,two_step_task_legacy,2022.2.4,Win32,59.35774915,4,learning,0,resources/alien4_norm.png,0.4,resources/alien3_norm.png,0.6,TRUE,TRUE,2,0.609160563,purple,x,0.1672,alien3,TRUE,3,0.903885934,165,0,0.6,m,0.5575,0,246,246,246,1,0.7,0.3,0.6,0.4,TRUE,,,,,,,,,,,,,,,,,,,,,,,,,,,,,,,,,
GOSH_A10,2023-11-10_10h40.56.593,two_step_task_legacy,2022.2.4,Win32,59.35774915,4,learning,1,resources/alien1_norm.png,0.7,resources/alien2_norm.png,0.3,TRUE,TRUE,3,0.889459088,red,x,0.074,alien1,TRUE,2,0.137345452,166,1,0.7,x,1.1036,0,247,247,247,1,0.7,0.3,0.6,0.4,FALSE,,,,,,,,,,,,,,,,,,,,,,,,,,,,,,,,,
GOSH_A10,2023-11-10_10h40.56.593,two_step_task_legacy,2022.2.4,Win32,59.35774915,4,learning,1,resources/alien2_norm.png,0.3,resources/alien1_norm.png,0.7,TRUE,TRUE,3,0.897317308,red,x,0.4334,alien1,TRUE,2,0.579838553,167,1,0.7,m,0.7516,0,248,248,248,1,0.7,0.3,0.6,0.4,TRUE,,,,,,,,,,,,,,,,,,,,,,,,,,,,,,,,,
GOSH_A10,2023-11-10_10h40.56.593,two_step_task_legacy,2022.2.4,Win32,59.35774915,4,learning,1,resources/alien3_norm.png,0.6,resources/alien4_norm.png,0.4,TRUE,TRUE,2,0.774951543,purple,m,0.067,alien3,TRUE,3,0.632323736,167,0,0.6,x,1.1672,0,249,249,249,1,0.7,0.3,0.6,0.4,FALSE,,,,,,,,,,,,,,,,,,,,,,,,,,,,,,,,,
GOSH_A10,2023-11-10_10h40.56.593,two_step_task_legacy,2022.2.4,Win32,59.35774915,4,learning,0,resources/alien2_norm.png,0.3,resources/alien1_norm.png,0.7,TRUE,TRUE,3,0.32839849,red,m,0.4008,alien1,TRUE,3,0.821956295,167,0,0.7,m,0.5495,0,250,250,250,1,0.7,0.3,0.6,0.4,TRUE,,,,,,,,,,,,,,,,,,,,,,,,,,,,,,,,,
GOSH_A10,2023-11-10_10h40.56.593,two_step_task_legacy,2022.2.4,Win32,59.35774915,4,learning,0,resources/alien2_norm.png,0.3,resources/alien1_norm.png,0.7,TRUE,TRUE,3,0.56417657,red,m,0.1312,alien2,TRUE,3,0.448184513,167,0,0.3,x,0.5866,0,251,251,251,1,0.7,0.3,0.6,0.4,TRUE,,,,,,,,,,,,,,,,,,,,,,,,,,,,,,,,,
GOSH_A10,2023-11-10_10h40.56.593,two_step_task_legacy,2022.2.4,Win32,59.35774915,4,learning,1,resources/alien3_norm.png,0.6,resources/alien4_norm.png,0.4,TRUE,TRUE,2,0.78133144,purple,m,0.4223,alien4,TRUE,2,0.11985703,168,1,0.4,m,1.2514,0,252,252,252,1,0.7,0.3,0.6,0.4,FALSE,,,,,,,,,,,,,,,,,,,,,,,,,,,,,,,,,
GOSH_A10,2023-11-10_10h40.56.593,two_step_task_legacy,2022.2.4,Win32,59.35774915,4,learning,0,resources/alien4_norm.png,0.4,resources/alien3_norm.png,0.6,TRUE,TRUE,2,0.515159408,purple,x,0.2507,alien4,TRUE,2,0.167667713,169,1,0.4,x,0.5488,0,253,253,253,1,0.7,0.3,0.6,0.4,TRUE,,,,,,,,,,,,,,,,,,,,,,,,,,,,,,,,,
GOSH_A10,2023-11-10_10h40.56.593,two_step_task_legacy,2022.2.4,Win32,59.35774915,4,learning,0,resources/alien4_norm.png,0.4,resources/alien3_norm.png,0.6,TRUE,TRUE,2,0.09058389,purple,x,0.2234,alien4,TRUE,2,0.352609444,170,1,0.4,x,0.4419,0,254,254,254,1,0.7,0.3,0.6,0.4,TRUE,,,,,,,,,,,,,,,,,,,,,,,,,,,,,,,,,
GOSH_A10,2023-11-10_10h40.56.593,two_step_task_legacy,2022.2.4,Win32,59.35774915,4,learning,1,resources/alien1_norm.png,0.7,resources/alien2_norm.png,0.3,TRUE,TRUE,3,0.967281667,red,x,0.184,alien2,TRUE,3,0.94855211,170,0,0.3,m,0.7442,0,255,255,255,1,0.7,0.3,0.6,0.4,FALSE,,,,,,,,,,,,,,,,,,,,,,,,,,,,,,,,,
GOSH_A10,2023-11-10_10h40.56.593,two_step_task_legacy,2022.2.4,Win32,59.35774915,4,learning,0,resources/alien3_norm.png,0.6,resources/alien4_norm.png,0.4,TRUE,TRUE,2,0.270108034,purple,x,0.0477,alien4,TRUE,3,0.858170798,170,0,0.4,m,0.5735,0,256,256,256,1,0.7,0.3,0.6,0.4,FALSE,,,,,,,,,,,,,,,,,,,,,,,,,,,,,,,,,
GOSH_A10,2023-11-10_10h40.56.593,two_step_task_legacy,2022.2.4,Win32,59.35774915,4,learning,1,resources/alien1_norm.png,0.7,resources/alien2_norm.png,0.3,TRUE,TRUE,3,0.939266614,red,x,0.2591,alien1,TRUE,2,0.351693445,171,1,0.7,x,0.8618,0,257,257,257,1,0.7,0.3,0.6,0.4,FALSE,,,,,,,,,,,,,,,,,,,,,,,,,,,,,,,,,
GOSH_A10,2023-11-10_10h40.56.593,two_step_task_legacy,2022.2.4,Win32,59.35774915,4,learning,0,resources/alien2_norm.png,0.3,resources/alien1_norm.png,0.7,TRUE,TRUE,3,0.55217852,red,m,0.0506,alien1,TRUE,3,0.714077995,171,0,0.7,m,0.4191,0,258,258,258,1,0.7,0.3,0.6,0.4,TRUE,,,,,,,,,,,,,,,,,,,,,,,,,,,,,,,,,
GOSH_A10,2023-11-10_10h40.56.593,two_step_task_legacy,2022.2.4,Win32,59.35774915,4,learning,0,resources/alien3_norm.png,0.6,resources/alien4_norm.png,0.4,TRUE,TRUE,2,0.632062388,purple,x,0.2417,alien4,TRUE,2,0.351172722,172,1,0.4,m,0.6383,0,259,259,259,1,0.7,0.3,0.6,0.4,FALSE,,,,,,,,,,,,,,,,,,,,,,,,,,,,,,,,,
GOSH_A10,2023-11-10_10h40.56.593,two_step_task_legacy,2022.2.4,Win32,59.35774915,4,learning,0,resources/alien3_norm.png,0.6,resources/alien4_norm.png,0.4,TRUE,TRUE,2,0.279400557,purple,x,0.1997,alien4,TRUE,3,0.648970928,172,0,0.4,m,0.3936,0,260,260,260,1,0.7,0.3,0.6,0.4,FALSE,,,,,,,,,,,,,,,,,,,,,,,,,,,,,,,,,
GOSH_A10,2023-11-10_10h40.56.593,two_step_task_legacy,2022.2.4,Win32,59.35774915,4,learning,1,resources/alien2_norm.png,0.3,resources/alien1_norm.png,0.7,TRUE,TRUE,3,0.944186933,red,x,0.1162,alien2,TRUE,3,0.635295624,172,0,0.3,x,0.7822,0,261,261,261,1,0.7,0.3,0.6,0.4,TRUE,,,,,,,,,,,,,,,,,,,,,,,,,,,,,,,,,
GOSH_A10,2023-11-10_10h40.56.593,two_step_task_legacy,2022.2.4,Win32,59.35774915,4,learning,0,resources/alien3_norm.png,0.6,resources/alien4_norm.png,0.4,TRUE,TRUE,2,0.01296667,purple,x,0.4551,alien4,TRUE,2,0.266209233,173,1,0.4,m,0.5391,0,262,262,262,1,0.7,0.3,0.6,0.4,FALSE,,,,,,,,,,,,,,,,,,,,,,,,,,,,,,,,,
GOSH_A10,2023-11-10_10h40.56.593,two_step_task_legacy,2022.2.4,Win32,59.35774915,4,learning,1,resources/alien1_norm.png,0.7,resources/alien2_norm.png,0.3,TRUE,TRUE,3,0.860200358,red,x,0.1784,alien1,TRUE,2,0.033153482,174,1,0.7,x,0.8661,0,263,263,263,1,0.7,0.3,0.6,0.4,FALSE,,,,,,,,,,,,,,,,,,,,,,,,,,,,,,,,,
GOSH_A10,2023-11-10_10h40.56.593,two_step_task_legacy,2022.2.4,Win32,59.35774915,4,learning,0,resources/alien3_norm.png,0.6,resources/alien4_norm.png,0.4,TRUE,TRUE,2,0.06473169,purple,x,0.167,alien4,TRUE,2,0.027032985,175,1,0.4,m,0.4476,0,264,264,264,1,0.7,0.3,0.6,0.4,FALSE,,,,,,,,,,,,,,,,,,,,,,,,,,,,,,,,,
GOSH_A10,2023-11-10_10h40.56.593,two_step_task_legacy,2022.2.4,Win32,59.35774915,4,learning,1,resources/alien2_norm.png,0.3,resources/alien1_norm.png,0.7,TRUE,TRUE,3,0.750849585,red,x,0.0817,alien1,TRUE,2,0.311965887,176,1,0.7,m,1.0319,0,265,265,265,1,0.7,0.3,0.6,0.4,TRUE,,,,,,,,,,,,,,,,,,,,,,,,,,,,,,,,,
GOSH_A10,2023-11-10_10h40.56.593,two_step_task_legacy,2022.2.4,Win32,59.35774915,4,learning,0,resources/alien4_norm.png,0.4,resources/alien3_norm.png,0.6,TRUE,TRUE,2,0.69870439,purple,x,0.217,alien4,TRUE,3,0.438823647,176,0,0.4,x,1.0152,0,266,266,266,1,0.7,0.3,0.6,0.4,TRUE,,,,,,,,,,,,,,,,,,,,,,,,,,,,,,,,,
GOSH_A10,2023-11-10_10h40.56.593,two_step_task_legacy,2022.2.4,Win32,59.35774915,4,learning,1,resources/alien2_norm.png,0.3,resources/alien1_norm.png,0.7,TRUE,TRUE,3,0.7582649,red,x,0.2506,alien1,TRUE,2,0.448794455,177,1,0.7,m,0.6057,0,267,267,267,1,0.7,0.3,0.6,0.4,TRUE,,,,,,,,,,,,,,,,,,,,,,,,,,,,,,,,,
GOSH_A10,2023-11-10_10h40.56.593,two_step_task_legacy,2022.2.4,Win32,59.35774915,4,learning,0,resources/alien3_norm.png,0.6,resources/alien4_norm.png,0.4,TRUE,TRUE,2,0.525637771,purple,x,0.2333,alien4,TRUE,3,0.916245356,177,0,0.4,m,0.6914,0,268,268,268,1,0.7,0.3,0.6,0.4,FALSE,,,,,,,,,,,,,,,,,,,,,,,,,,,,,,,,,
GOSH_A10,2023-11-10_10h40.56.593,two_step_task_legacy,2022.2.4,Win32,59.35774915,4,learning,0,resources/alien4_norm.png,0.4,resources/alien3_norm.png,0.6,TRUE,TRUE,2,0.117927128,purple,x,0.2437,alien3,TRUE,3,0.670874044,177,0,0.6,m,0.8488,0,269,269,269,1,0.7,0.3,0.6,0.4,TRUE,,,,,,,,,,,,,,,,,,,,,,,,,,,,,,,,,
GOSH_A10,2023-11-10_10h40.56.593,two_step_task_legacy,2022.2.4,Win32,59.35774915,4,learning,0,resources/alien1_norm.png,0.7,resources/alien2_norm.png,0.3,TRUE,TRUE,3,0.157810046,red,m,0.3614,alien1,TRUE,3,0.752526672,177,0,0.7,x,0.5529,0,270,270,270,1,0.7,0.3,0.6,0.4,FALSE,,,,,,,,,,,,,,,,,,,,,,,,,,,,,,,,,
GOSH_A10,2023-11-10_10h40.56.593,two_step_task_legacy,2022.2.4,Win32,59.35774915,4,learning,0,resources/alien2_norm.png,0.3,resources/alien1_norm.png,0.7,TRUE,TRUE,3,0.374201025,red,m,0.3373,alien1,TRUE,3,0.730360764,177,0,0.7,m,0.7554,0,271,271,271,1,0.7,0.3,0.6,0.4,TRUE,,,,,,,,,,,,,,,,,,,,,,,,,,,,,,,,,
GOSH_A10,2023-11-10_10h40.56.593,two_step_task_legacy,2022.2.4,Win32,59.35774915,4,learning,1,resources/alien3_norm.png,0.6,resources/alien4_norm.png,0.4,TRUE,TRUE,2,0.92117203,purple,m,0.1937,alien3,TRUE,2,0.109022891,178,1,0.6,x,0.7952,0,272,272,272,1,0.7,0.3,0.6,0.4,FALSE,,,,,,,,,,,,,,,,,,,,,,,,,,,,,,,,,
GOSH_A10,2023-11-10_10h40.56.593,two_step_task_legacy,2022.2.4,Win32,59.35774915,4,learning,1,resources/alien4_norm.png,0.4,resources/alien3_norm.png,0.6,TRUE,TRUE,2,0.754449271,purple,m,0.0748,alien3,TRUE,2,0.429224457,179,1,0.6,m,0.5921,0,273,273,273,1,0.7,0.3,0.6,0.4,TRUE,,,,,,,,,,,,,,,,,,,,,,,,,,,,,,,,,
GOSH_A10,2023-11-10_10h40.56.593,two_step_task_legacy,2022.2.4,Win32,59.35774915,4,learning,1,resources/alien4_norm.png,0.4,resources/alien3_norm.png,0.6,TRUE,TRUE,2,0.72786821,purple,m,0.0931,alien3,TRUE,3,0.613312041,179,0,0.6,m,0.5283,0,274,274,274,1,0.7,0.3,0.6,0.4,TRUE,,,,,,,,,,,,,,,,,,,,,,,,,,,,,,,,,
GOSH_A10,2023-11-10_10h40.56.593,two_step_task_legacy,2022.2.4,Win32,59.35774915,4,learning,1,resources/alien4_norm.png,0.4,resources/alien3_norm.png,0.6,TRUE,TRUE,2,0.81489801,purple,m,0.2172,alien3,TRUE,3,0.643485655,179,0,0.6,m,0.4529,0,275,275,275,1,0.7,0.3,0.6,0.4,TRUE,,,,,,,,,,,,,,,,,,,,,,,,,,,,,,,,,
GOSH_A10,2023-11-10_10h40.56.593,two_step_task_legacy,2022.2.4,Win32,59.35774915,4,learning,0,resources/alien1_norm.png,0.7,resources/alien2_norm.png,0.3,TRUE,TRUE,3,0.3395703,red,m,0.1004,alien1,TRUE,3,0.968314173,179,0,0.7,x,0.675,0,276,276,276,1,0.7,0.3,0.6,0.4,FALSE,,,,,,,,,,,,,,,,,,,,,,,,,,,,,,,,,
GOSH_A10,2023-11-10_10h40.56.593,two_step_task_legacy,2022.2.4,Win32,59.35774915,4,learning,0,resources/alien2_norm.png,0.3,resources/alien1_norm.png,0.7,TRUE,TRUE,3,0.094958511,red,m,0.2394,alien2,TRUE,2,0.13306973,180,1,0.3,x,0.9511,0,277,277,277,1,0.7,0.3,0.6,0.4,TRUE,,,,,,,,,,,,,,,,,,,,,,,,,,,,,,,,,
GOSH_A10,2023-11-10_10h40.56.593,two_step_task_legacy,2022.2.4,Win32,59.35774915,4,learning,1,resources/alien3_norm.png,0.6,resources/alien4_norm.png,0.4,TRUE,TRUE,2,0.929824213,purple,m,0.2009,alien4,TRUE,3,0.690623818,180,0,0.4,m,1.0612,0,278,278,278,1,0.7,0.3,0.6,0.4,FALSE,,,,,,,,,,,,,,,,,,,,,,,,,,,,,,,,,
GOSH_A10,2023-11-10_10h40.56.593,two_step_task_legacy,2022.2.4,Win32,59.35774915,4,learning,0,resources/alien2_norm.png,0.3,resources/alien1_norm.png,0.7,TRUE,TRUE,3,0.451637408,red,m,0.101,alien2,TRUE,3,0.919546027,180,0,0.3,x,0.5667,0,279,279,279,1,0.7,0.3,0.6,0.4,TRUE,,,,,,,,,,,,,,,,,,,,,,,,,,,,,,,,,
GOSH_A10,2023-11-10_10h40.56.593,two_step_task_legacy,2022.2.4,Win32,59.35774915,4,learning,0,resources/alien2_norm.png,0.3,resources/alien1_norm.png,0.7,TRUE,TRUE,3,0.265034539,red,m,0.0877,alien1,TRUE,3,0.777257732,180,0,0.7,m,0.9967,0,280,280,280,1,0.7,0.3,0.6,0.4,TRUE,,,,,,,,,,,,,,,,,,,,,,,,,,,,,,,,,
GOSH_A10,2023-11-10_10h40.56.593,two_step_task_legacy,2022.2.4,Win32,59.35774915,4,learning,0,resources/alien2_norm.png,0.3,resources/alien1_norm.png,0.7,TRUE,TRUE,3,0.693964744,red,m,0.1972,alien1,TRUE,2,0.627625924,181,1,0.7,m,0.6235,0,281,281,281,1,0.7,0.3,0.6,0.4,TRUE,,,,,,,,,,,,,,,,,,,,,,,,,,,,,,,,,
GOSH_A10,2023-11-10_10h40.56.593,two_step_task_legacy,2022.2.4,Win32,59.35774915,4,learning,0,resources/alien2_norm.png,0.3,resources/alien1_norm.png,0.7,TRUE,TRUE,3,0.128838086,red,m,0.1454,alien1,TRUE,3,0.764903219,181,0,0.7,m,0.396,0,282,282,282,1,0.7,0.3,0.6,0.4,TRUE,,,,,,,,,,,,,,,,,,,,,,,,,,,,,,,,,
GOSH_A10,2023-11-10_10h40.56.593,two_step_task_legacy,2022.2.4,Win32,59.35774915,4,learning,0,resources/alien1_norm.png,0.7,resources/alien2_norm.png,0.3,TRUE,TRUE,3,0.423619933,red,m,0.2446,alien1,TRUE,3,0.826997576,181,0,0.7,x,0.3007,0,283,283,283,1,0.7,0.3,0.6,0.4,FALSE,,,,,,,,,,,,,,,,,,,,,,,,,,,,,,,,,
GOSH_A10,2023-11-10_10h40.56.593,two_step_task_legacy,2022.2.4,Win32,59.35774915,4,learning,0,resources/alien4_norm.png,0.4,resources/alien3_norm.png,0.6,TRUE,TRUE,2,0.114397363,purple,x,0.2003,alien3,TRUE,3,0.682862565,181,0,0.6,m,0.2605,0,284,284,284,1,0.7,0.3,0.6,0.4,TRUE,,,,,,,,,,,,,,,,,,,,,,,,,,,,,,,,,
GOSH_A10,2023-11-10_10h40.56.593,two_step_task_legacy,2022.2.4,Win32,59.35774915,4,learning,0,resources/alien4_norm.png,0.4,resources/alien3_norm.png,0.6,TRUE,TRUE,2,0.243614501,purple,x,0.2309,alien4,TRUE,3,0.889910394,181,0,0.4,x,0.2545,0,285,285,285,1,0.7,0.3,0.6,0.4,TRUE,,,,,,,,,,,,,,,,,,,,,,,,,,,,,,,,,
GOSH_A10,2023-11-10_10h40.56.593,two_step_task_legacy,2022.2.4,Win32,59.35774915,4,learning,0,resources/alien2_norm.png,0.3,resources/alien1_norm.png,0.7,TRUE,TRUE,3,0.501098319,red,m,0.1678,alien2,TRUE,3,0.737514242,181,0,0.3,x,0.3286,0,286,286,286,1,0.7,0.3,0.6,0.4,TRUE,,,,,,,,,,,,,,,,,,,,,,,,,,,,,,,,,
GOSH_A10,2023-11-10_10h40.56.593,two_step_task_legacy,2022.2.4,Win32,59.35774915,4,learning,0,resources/alien1_norm.png,0.7,resources/alien2_norm.png,0.3,TRUE,TRUE,3,0.058976317,red,m,0.1881,alien2,TRUE,3,0.946761722,181,0,0.3,m,0.2509,0,287,287,287,1,0.7,0.3,0.6,0.4,FALSE,,,,,,,,,,,,,,,,,,,,,,,,,,,,,,,,,
GOSH_A10,2023-11-10_10h40.56.593,two_step_task_legacy,2022.2.4,Win32,59.35774915,4,learning,1,resources/alien4_norm.png,0.4,resources/alien3_norm.png,0.6,TRUE,TRUE,2,0.841141733,purple,m,0.129,alien4,TRUE,2,0.221591367,182,1,0.4,x,0.5389,0,288,288,288,1,0.7,0.3,0.6,0.4,TRUE,,,,,,,,,,,,,,,,,,,,,,,,,,,,,,,,,
GOSH_A10,2023-11-10_10h40.56.593,two_step_task_legacy,2022.2.4,Win32,59.35774915,4,learning,1,resources/alien4_norm.png,0.4,resources/alien3_norm.png,0.6,TRUE,TRUE,2,0.824383526,purple,m,0.1832,alien4,TRUE,2,0.32634243,183,1,0.4,x,1.0189,0,289,289,289,1,0.7,0.3,0.6,0.4,TRUE,,,,,,,,,,,,,,,,,,,,,,,,,,,,,,,,,
