participant,date,expName,psychopyVersion,OS,frameRate,payoff_list,phase,rare_transition,left_alien,left_probabilty,right_alien,right_probabilty,select_sp,show_alien,rocket_trans,rand_sp,planet,key_resp_exp.keys,key_resp_exp.rt,chosen_alien,select_alien,transmoney,rand_money,totalgold,trialgain,probs,key_resp_exp_alien.keys,key_resp_exp_alien.rt,loop_exp.thisRepN,loop_exp.thisTrialN,loop_exp.thisN,loop_exp.thisIndex,loop_exp.ran,p1,p2,p3,p4,flip_sides,static_probability_left,static_probability_right,key_resp_probe.keys,key_resp_probe.rt,accuracy,probe_loop.thisRepN,probe_loop.thisTrialN,probe_loop.thisN,probe_loop.thisIndex,probe_loop.ran,probe_la,probe_ra,key_resp.keys,key_resp.rt,slider.response,slider.rt,post_loop.thisRepN,post_loop.thisTrialN,post_loop.thisN,post_loop.thisIndex,post_loop.ran,text_up,pos_text_up,text_down,pos_img_left_up,left_up_img,right_up_img,left_down_img_1,left_down_img_2,right_down_img_1,right_down_img_2,size,show_slider
test_after_changes,2023-11-15_09h45.23.669,two_step_task_legacy,2022.2.4,Win32,59.99520038,,,,,,,,,,,,,,,,,,,,,,,,,,,,,,,,,,,,,,,,,,,,,,,,,,,,,,,,,,,,,,,,,,
test_after_changes,2023-11-15_09h45.23.669,two_step_task_legacy,2022.2.4,Win32,59.99520038,,,,,,,,,,,,,,,,,,,,,,,,,,,,,,,,,,,,,,,,,,,,,,,,,,,,,,,,,,,,,,,,,,
test_after_changes,2023-11-15_09h45.23.669,two_step_task_legacy,2022.2.4,Win32,59.99520038,,,,,,,,,,,,,,,,,,,,,,,,,,,,,,,,,,,,,,,,,,,,,,,,,,,,,,,,,,,,,,,,,,
test_after_changes,2023-11-15_09h45.23.669,two_step_task_legacy,2022.2.4,Win32,59.99520038,,,,,,,,,,,,,,,,,,,,,,,,,,,,,,,,,,,,,,,,,,,,,,,,,,,,,,,,,,,,,,,,,,
test_after_changes,2023-11-15_09h45.23.669,two_step_task_legacy,2022.2.4,Win32,59.99520038,,,,,,,,,,,,,,,,,,,,,,,,,,,,,,,,,,,,,,,,,,,,,,,,,,,,,,,,,,,,,,,,,,
test_after_changes,2023-11-15_09h45.23.669,two_step_task_legacy,2022.2.4,Win32,59.99520038,,,,,,,,,,,,,,,,,,,,,,,,,,,,,,,,,,,,,,,,,,,,,,,,,,,,,,,,,,,,,,,,,,
test_after_changes,2023-11-15_09h45.23.669,two_step_task_legacy,2022.2.4,Win32,59.99520038,,,,,,,,,,,,,,,,,,,,,,,,,,,,,,,,,,,,,,,,,,,,,,,,,,,,,,,,,,,,,,,,,,
test_after_changes,2023-11-15_09h45.23.669,two_step_task_legacy,2022.2.4,Win32,59.99520038,,,,,,,,,,,,,,,,,,,,,,,,,,,,,,,,,,,,,,,,,,,,,,,,,,,,,,,,,,,,,,,,,,
test_after_changes,2023-11-15_09h45.23.669,two_step_task_legacy,2022.2.4,Win32,59.99520038,,,,,,,,,,,,,,,,,,,,,,,,,,,,,,,,,,,,,,,,,,,,,,,,,,,,,,,,,,,,,,,,,,
test_after_changes,2023-11-15_09h45.23.669,two_step_task_legacy,2022.2.4,Win32,59.99520038,,,,,,,,,,,,,,,,,,,,,,,,,,,,,,,,,,,,,,,,,,,,,,,,,,,,,,,,,,,,,,,,,,
test_after_changes,2023-11-15_09h45.23.669,two_step_task_legacy,2022.2.4,Win32,59.99520038,,,,,,,,,,,,,,,,,,,,,,,,,,,,,,,,,,,,,,,,,,,,,,,,,,,,,,,,,,,,,,,,,,
test_after_changes,2023-11-15_09h45.23.669,two_step_task_legacy,2022.2.4,Win32,59.99520038,41,learning,0,resources/alien2_norm.png,0.725900905,resources/alien1_norm.png,0.592919234,TRUE,TRUE,3,0.448956076,red,m,0.5401,alien1,TRUE,2,0.592330407,1,1,0.592919234,m,0.116,0,0,0,0,1,0.592919234,0.725900905,0.443858228,0.27950747,TRUE,,,,,,,,,,,,,,,,,,,,,,,,,,,,,,,,,
test_after_changes,2023-11-15_09h45.23.669,two_step_task_legacy,2022.2.4,Win32,59.99520038,41,learning,0,resources/alien1_norm.png,0.59679033,resources/alien2_norm.png,0.744384228,TRUE,TRUE,3,0.435415928,red,m,0.1046,alien2,TRUE,3,0.843393705,1,0,0.744384228,m,0.1898,0,1,1,1,1,0.59679033,0.744384228,0.45423091,0.295972889,FALSE,,,,,,,,,,,,,,,,,,,,,,,,,,,,,,,,,
test_after_changes,2023-11-15_09h45.23.669,two_step_task_legacy,2022.2.4,Win32,59.99520038,41,learning,0,resources/alien2_norm.png,0.733574025,resources/alien1_norm.png,0.60177345,TRUE,TRUE,3,0.570589562,red,m,0.1666,alien1,TRUE,2,0.274458052,2,1,0.60177345,m,0.2468,0,2,2,2,1,0.60177345,0.733574025,0.455634511,0.31700386,TRUE,,,,,,,,,,,,,,,,,,,,,,,,,,,,,,,,,
test_after_changes,2023-11-15_09h45.23.669,two_step_task_legacy,2022.2.4,Win32,59.99520038,41,learning,0,resources/alien2_norm.png,0.736493304,resources/alien1_norm.png,0.575786997,TRUE,TRUE,3,0.425492373,red,m,0.77,alien1,TRUE,3,0.62165388,2,0,0.575786997,m,0.1527,0,3,3,3,1,0.575786997,0.736493304,0.471841934,0.31795339,TRUE,,,,,,,,,,,,,,,,,,,,,,,,,,,,,,,,,
test_after_changes,2023-11-15_09h45.23.669,two_step_task_legacy,2022.2.4,Win32,59.99520038,41,learning,0,resources/alien1_norm.png,0.567847603,resources/alien2_norm.png,0.732422245,TRUE,TRUE,3,0.270013775,red,m,0.0841,alien2,TRUE,2,0.064932321,3,1,0.732422245,m,0.09,0,4,4,4,1,0.567847603,0.732422245,0.442864037,0.314743689,FALSE,,,,,,,,,,,,,,,,,,,,,,,,,,,,,,,,,
test_after_changes,2023-11-15_09h45.23.669,two_step_task_legacy,2022.2.4,Win32,59.99520038,41,learning,0,resources/alien1_norm.png,0.613520007,resources/alien2_norm.png,0.719024184,TRUE,TRUE,3,0.696187246,red,m,0.0692,alien2,TRUE,2,0.039148767,4,1,0.719024184,m,0.1754,0,5,5,5,1,0.613520007,0.719024184,0.425542419,0.331932433,FALSE,,,,,,,,,,,,,,,,,,,,,,,,,,,,,,,,,
test_after_changes,2023-11-15_09h45.23.669,two_step_task_legacy,2022.2.4,Win32,59.99520038,41,learning,0,resources/alien2_norm.png,0.703346131,resources/alien1_norm.png,0.646413289,TRUE,TRUE,3,0.077659568,red,m,0.0945,alien1,TRUE,2,0.287671246,5,1,0.646413289,m,0.1326,0,6,6,6,1,0.646413289,0.703346131,0.45882479,0.335203637,TRUE,,,,,,,,,,,,,,,,,,,,,,,,,,,,,,,,,
test_after_changes,2023-11-15_09h45.23.669,two_step_task_legacy,2022.2.4,Win32,59.99520038,41,learning,0,resources/alien1_norm.png,0.656173784,resources/alien2_norm.png,0.720597765,TRUE,TRUE,3,0.136726078,red,m,0.1765,alien2,TRUE,2,0.389059786,6,1,0.720597765,m,0.088,0,7,7,7,1,0.656173784,0.720597765,0.470030307,0.317344228,FALSE,,,,,,,,,,,,,,,,,,,,,,,,,,,,,,,,,
test_after_changes,2023-11-15_09h45.23.669,two_step_task_legacy,2022.2.4,Win32,59.99520038,41,learning,1,resources/alien4_norm.png,0.274606094,resources/alien3_norm.png,0.484620776,TRUE,TRUE,2,0.865863635,purple,m,0.0833,alien3,TRUE,3,0.792779142,6,0,0.484620776,m,0.1029,0,8,8,8,1,0.679642094,0.740934325,0.484620776,0.274606094,TRUE,,,,,,,,,,,,,,,,,,,,,,,,,,,,,,,,,
test_after_changes,2023-11-15_09h45.23.669,two_step_task_legacy,2022.2.4,Win32,59.99520038,41,learning,0,resources/alien1_norm.png,0.688180407,resources/alien2_norm.png,0.689489059,TRUE,TRUE,3,0.183438447,red,m,0.1902,alien2,TRUE,2,0.677296077,7,1,0.689489059,m,0.2023,0,9,9,9,1,0.688180407,0.689489059,0.493984152,0.279361174,FALSE,,,,,,,,,,,,,,,,,,,,,,,,,,,,,,,,,
test_after_changes,2023-11-15_09h45.23.669,two_step_task_legacy,2022.2.4,Win32,59.99520038,41,learning,0,resources/alien2_norm.png,0.672474435,resources/alien1_norm.png,0.722256697,TRUE,TRUE,3,0.25518796,red,m,0.1337,alien1,TRUE,2,0.218348129,8,1,0.722256697,m,0.0991,0,10,10,10,1,0.722256697,0.672474435,0.483038561,0.282942862,TRUE,,,,,,,,,,,,,,,,,,,,,,,,,,,,,,,,,
test_after_changes,2023-11-15_09h45.23.669,two_step_task_legacy,2022.2.4,Win32,59.99520038,41,learning,1,resources/alien4_norm.png,0.259019373,resources/alien3_norm.png,0.510853538,TRUE,TRUE,2,0.828762845,purple,m,0.1834,alien3,TRUE,3,0.81830039,8,0,0.510853538,m,0.1413,0,11,11,11,1,0.684969653,0.692623887,0.510853538,0.259019373,TRUE,,,,,,,,,,,,,,,,,,,,,,,,,,,,,,,,,
test_after_changes,2023-11-15_09h45.23.669,two_step_task_legacy,2022.2.4,Win32,59.99520038,41,learning,0,resources/alien2_norm.png,0.715817289,resources/alien1_norm.png,0.659633046,TRUE,TRUE,3,0.563309739,red,m,0.22,alien1,TRUE,3,0.72143614,8,0,0.659633046,m,0.095,0,12,12,12,1,0.659633046,0.715817289,0.479761531,0.255717844,TRUE,,,,,,,,,,,,,,,,,,,,,,,,,,,,,,,,,
test_after_changes,2023-11-15_09h45.23.669,two_step_task_legacy,2022.2.4,Win32,59.99520038,41,learning,0,resources/alien2_norm.png,0.746070273,resources/alien1_norm.png,0.640778901,TRUE,TRUE,3,0.039860146,red,m,0.4333,alien1,TRUE,2,0.035495011,9,1,0.640778901,m,1.2838,0,13,13,13,1,0.640778901,0.746070273,0.486310925,0.298984932,TRUE,,,,,,,,,,,,,,,,,,,,,,,,,,,,,,,,,
test_after_changes,2023-11-15_09h45.23.669,two_step_task_legacy,2022.2.4,Win32,59.99520038,41,learning,1,resources/alien3_norm.png,0.483221717,resources/alien4_norm.png,0.292136448,TRUE,TRUE,2,0.980594035,purple,m,0.1498,alien4,TRUE,3,0.811797171,9,0,0.292136448,m,0.1382,0,14,14,14,1,0.609843847,0.745244975,0.483221717,0.292136448,FALSE,,,,,,,,,,,,,,,,,,,,,,,,,,,,,,,,,
test_after_changes,2023-11-15_09h45.23.669,two_step_task_legacy,2022.2.4,Win32,59.99520038,41,learning,0,resources/alien2_norm.png,0.742194192,resources/alien1_norm.png,0.647958318,TRUE,TRUE,3,0.051614431,red,m,0.1879,alien1,TRUE,3,0.990746289,9,0,0.647958318,m,0.1063,0,15,15,15,1,0.647958318,0.742194192,0.475561931,0.315615459,TRUE,,,,,,,,,,,,,,,,,,,,,,,,,,,,,,,,,
test_after_changes,2023-11-15_09h45.23.669,two_step_task_legacy,2022.2.4,Win32,59.99520038,41,learning,0,resources/alien2_norm.png,0.723966215,resources/alien1_norm.png,0.645843171,TRUE,TRUE,3,0.416618538,red,m,0.2178,alien1,TRUE,2,0.519236216,10,1,0.645843171,m,0.2361,0,16,16,16,1,0.645843171,0.723966215,0.453043104,0.348756417,TRUE,,,,,,,,,,,,,,,,,,,,,,,,,,,,,,,,,
test_after_changes,2023-11-15_09h45.23.669,two_step_task_legacy,2022.2.4,Win32,59.99520038,41,learning,0,resources/alien1_norm.png,0.692166841,resources/alien2_norm.png,0.722635815,TRUE,TRUE,3,0.496292897,red,m,0.1332,alien2,TRUE,3,0.947574381,10,0,0.722635815,m,0.232,0,17,17,17,1,0.692166841,0.722635815,0.463953484,0.34175623,FALSE,,,,,,,,,,,,,,,,,,,,,,,,,,,,,,,,,
test_after_changes,2023-11-15_09h45.23.669,two_step_task_legacy,2022.2.4,Win32,59.99520038,41,learning,0,resources/alien2_norm.png,0.731280491,resources/alien1_norm.png,0.705363788,TRUE,TRUE,3,0.27007613,red,m,0.1839,alien1,TRUE,3,0.722764141,10,0,0.705363788,m,0.2489,0,18,18,18,1,0.705363788,0.731280491,0.44983954,0.361794708,TRUE,,,,,,,,,,,,,,,,,,,,,,,,,,,,,,,,,
test_after_changes,2023-11-15_09h45.23.669,two_step_task_legacy,2022.2.4,Win32,59.99520038,41,learning,0,resources/alien1_norm.png,0.638524244,resources/alien2_norm.png,0.731469643,TRUE,TRUE,3,0.001531003,red,m,0.2717,alien2,TRUE,3,0.79746681,10,0,0.731469643,m,0.2796,0,19,19,19,1,0.638524244,0.731469643,0.432081966,0.373358192,FALSE,,,,,,,,,,,,,,,,,,,,,,,,,,,,,,,,,
test_after_changes,2023-11-15_09h45.23.669,two_step_task_legacy,2022.2.4,Win32,59.99520038,41,learning,0,resources/alien1_norm.png,0.6317315,resources/alien2_norm.png,0.722503558,TRUE,TRUE,3,0.2115401,red,m,0.1337,alien2,TRUE,3,0.923118006,10,0,0.722503558,m,0.1422,0,20,20,20,1,0.6317315,0.722503558,0.440889844,0.370049194,FALSE,,,,,,,,,,,,,,,,,,,,,,,,,,,,,,,,,
test_after_changes,2023-11-15_09h45.23.669,two_step_task_legacy,2022.2.4,Win32,59.99520038,41,learning,1,resources/alien3_norm.png,0.444949016,resources/alien4_norm.png,0.385190721,TRUE,TRUE,2,0.721405433,purple,m,1.4421,alien4,TRUE,3,0.403246546,10,0,0.385190721,m,0.0515,0,21,21,21,1,0.644665474,0.721895684,0.444949016,0.385190721,FALSE,,,,,,,,,,,,,,,,,,,,,,,,,,,,,,,,,
test_after_changes,2023-11-15_09h45.23.669,two_step_task_legacy,2022.2.4,Win32,59.99520038,41,learning,0,resources/alien1_norm.png,0.666624831,resources/alien2_norm.png,0.705702366,TRUE,TRUE,3,0.542437235,red,m,0.0752,alien2,TRUE,2,0.351189459,11,1,0.705702366,m,0.0793,0,22,22,22,1,0.666624831,0.705702366,0.41870989,0.352113387,FALSE,,,,,,,,,,,,,,,,,,,,,,,,,,,,,,,,,
test_after_changes,2023-11-15_09h45.23.669,two_step_task_legacy,2022.2.4,Win32,59.99520038,41,learning,0,resources/alien1_norm.png,0.664096591,resources/alien2_norm.png,0.678602803,TRUE,TRUE,3,0.278938243,red,m,0.6038,alien2,TRUE,3,0.741626577,11,0,0.678602803,m,0.0333,0,23,23,23,1,0.664096591,0.678602803,0.465073071,0.307119567,FALSE,,,,,,,,,,,,,,,,,,,,,,,,,,,,,,,,,
test_after_changes,2023-11-15_09h45.23.669,two_step_task_legacy,2022.2.4,Win32,59.99520038,41,learning,0,resources/alien2_norm.png,0.666643436,resources/alien1_norm.png,0.680750687,TRUE,TRUE,3,0.150862677,red,m,0.1567,alien1,TRUE,2,0.003933382,12,1,0.680750687,m,0.1841,0,24,24,24,1,0.680750687,0.666643436,0.491099525,0.327636045,TRUE,,,,,,,,,,,,,,,,,,,,,,,,,,,,,,,,,
test_after_changes,2023-11-15_09h45.23.669,two_step_task_legacy,2022.2.4,Win32,59.99520038,41,learning,1,resources/alien4_norm.png,0.339488743,resources/alien3_norm.png,0.515332064,TRUE,TRUE,2,0.954568604,purple,m,0.951,alien3,TRUE,2,0.237393235,13,1,0.515332064,m,0.1338,0,25,25,25,1,0.721158618,0.678938875,0.515332064,0.339488743,TRUE,,,,,,,,,,,,,,,,,,,,,,,,,,,,,,,,,
test_after_changes,2023-11-15_09h45.23.669,two_step_task_legacy,2022.2.4,Win32,59.99520038,41,learning,0,resources/alien1_norm.png,0.726141219,resources/alien2_norm.png,0.688257877,TRUE,TRUE,3,0.321889711,red,m,0.0852,alien2,TRUE,2,0.266436597,14,1,0.688257877,m,0.013,0,26,26,26,1,0.726141219,0.688257877,0.536516343,0.306057792,FALSE,,,,,,,,,,,,,,,,,,,,,,,,,,,,,,,,,
test_after_changes,2023-11-15_09h45.23.669,two_step_task_legacy,2022.2.4,Win32,59.99520038,41,learning,0,resources/alien2_norm.png,0.708654251,resources/alien1_norm.png,0.73348975,TRUE,TRUE,3,0.346213258,red,m,0.3056,alien1,TRUE,2,0.623421134,15,1,0.73348975,m,0.1531,0,27,27,27,1,0.73348975,0.708654251,0.586460321,0.324762577,TRUE,,,,,,,,,,,,,,,,,,,,,,,,,,,,,,,,,
test_after_changes,2023-11-15_09h45.23.669,two_step_task_legacy,2022.2.4,Win32,59.99520038,41,learning,0,resources/alien2_norm.png,0.695447607,resources/alien1_norm.png,0.741945791,TRUE,TRUE,3,0.090943195,red,m,0.2731,alien1,TRUE,2,0.343603953,16,1,0.741945791,m,0.1204,0,28,28,28,1,0.741945791,0.695447607,0.560037831,0.324394061,TRUE,,,,,,,,,,,,,,,,,,,,,,,,,,,,,,,,,
test_after_changes,2023-11-15_09h45.23.669,two_step_task_legacy,2022.2.4,Win32,59.99520038,41,learning,0,resources/alien1_norm.png,0.741235567,resources/alien2_norm.png,0.647184722,TRUE,TRUE,3,0.271529915,red,m,0.0871,alien2,TRUE,3,0.920940396,16,0,0.647184722,m,0.0719,0,29,29,29,1,0.741235567,0.647184722,0.536509411,0.324567173,FALSE,,,,,,,,,,,,,,,,,,,,,,,,,,,,,,,,,
test_after_changes,2023-11-15_09h45.23.669,two_step_task_legacy,2022.2.4,Win32,59.99520038,41,learning,1,resources/alien3_norm.png,0.531370322,resources/alien4_norm.png,0.374347067,TRUE,TRUE,2,0.766649296,purple,m,0.0848,alien4,TRUE,2,0.201180113,17,1,0.374347067,m,0.0769,0,30,30,30,1,0.711120899,0.682287617,0.531370322,0.374347067,FALSE,,,,,,,,,,,,,,,,,,,,,,,,,,,,,,,,,
test_after_changes,2023-11-15_09h45.23.669,two_step_task_legacy,2022.2.4,Win32,59.99520038,41,learning,0,resources/alien1_norm.png,0.703930664,resources/alien2_norm.png,0.670612165,TRUE,TRUE,3,0.601424626,red,m,0.2558,alien2,TRUE,2,0.556807089,18,1,0.670612165,m,0.3686,0,31,31,31,1,0.703930664,0.670612165,0.531256282,0.366194808,FALSE,,,,,,,,,,,,,,,,,,,,,,,,,,,,,,,,,
test_after_changes,2023-11-15_09h45.23.669,two_step_task_legacy,2022.2.4,Win32,59.99520038,41,learning,0,resources/alien1_norm.png,0.747483385,resources/alien2_norm.png,0.676785204,TRUE,TRUE,3,0.278650159,red,m,0.6857,alien2,TRUE,3,0.763447647,18,0,0.676785204,m,0.5898,0,32,32,32,1,0.747483385,0.676785204,0.520215803,0.386285095,FALSE,,,,,,,,,,,,,,,,,,,,,,,,,,,,,,,,,
test_after_changes,2023-11-15_09h45.23.669,two_step_task_legacy,2022.2.4,Win32,59.99520038,41,learning,1,resources/alien4_norm.png,0.407380993,resources/alien3_norm.png,0.524958272,TRUE,TRUE,2,0.757792267,purple,m,0.129,alien3,TRUE,2,0.372706338,19,1,0.524958272,m,0.1024,0,33,33,33,1,0.74387237,0.641874978,0.524958272,0.407380993,TRUE,,,,,,,,,,,,,,,,,,,,,,,,,,,,,,,,,
test_after_changes,2023-11-15_09h45.23.669,two_step_task_legacy,2022.2.4,Win32,59.99520038,41,learning,0,resources/alien2_norm.png,0.647869521,resources/alien1_norm.png,0.73213969,TRUE,TRUE,3,0.252877458,red,m,0.0332,alien1,TRUE,2,0.243492857,20,1,0.73213969,m,0.0008,0,34,34,34,1,0.73213969,0.647869521,0.501933636,0.430053027,TRUE,,,,,,,,,,,,,,,,,,,,,,,,,,,,,,,,,
test_after_changes,2023-11-15_09h45.23.669,two_step_task_legacy,2022.2.4,Win32,59.99520038,41,learning,0,resources/alien2_norm.png,0.661804792,resources/alien1_norm.png,0.735960532,TRUE,TRUE,3,0.272263555,red,m,0.1003,alien1,TRUE,2,0.250167398,21,1,0.735960532,m,0.1567,0,35,35,35,1,0.735960532,0.661804792,0.485008195,0.408820591,TRUE,,,,,,,,,,,,,,,,,,,,,,,,,,,,,,,,,
test_after_changes,2023-11-15_09h45.23.669,two_step_task_legacy,2022.2.4,Win32,59.99520038,41,learning,1,resources/alien3_norm.png,0.465983699,resources/alien4_norm.png,0.402459854,TRUE,TRUE,2,0.992976187,purple,m,0.2287,alien4,TRUE,2,0.145832611,22,1,0.402459854,m,0.6862,0,36,36,36,1,0.729661989,0.677064408,0.465983699,0.402459854,FALSE,,,,,,,,,,,,,,,,,,,,,,,,,,,,,,,,,
test_after_changes,2023-11-15_09h45.23.669,two_step_task_legacy,2022.2.4,Win32,59.99520038,41,learning,1,resources/alien3_norm.png,0.509954334,resources/alien4_norm.png,0.406162253,TRUE,TRUE,2,0.850348951,purple,m,0.3997,alien4,TRUE,2,0.269751516,23,1,0.406162253,m,0.5106,0,37,37,37,1,0.707923169,0.652538123,0.509954334,0.406162253,FALSE,,,,,,,,,,,,,,,,,,,,,,,,,,,,,,,,,
test_after_changes,2023-11-15_09h45.23.669,two_step_task_legacy,2022.2.4,Win32,59.99520038,41,learning,0,resources/alien2_norm.png,0.673066329,resources/alien1_norm.png,0.694382959,TRUE,TRUE,3,0.281517605,red,m,0.0251,alien1,TRUE,2,0.066668524,24,1,0.694382959,m,0.2013,0,38,38,38,1,0.694382959,0.673066329,0.53675196,0.433014543,TRUE,,,,,,,,,,,,,,,,,,,,,,,,,,,,,,,,,
test_after_changes,2023-11-15_09h45.23.669,two_step_task_legacy,2022.2.4,Win32,59.99520038,41,learning,0,resources/alien2_norm.png,0.662671924,resources/alien1_norm.png,0.686824957,TRUE,TRUE,3,0.057288568,red,m,0.0721,alien1,TRUE,2,0.107824685,25,1,0.686824957,m,0.1844,0,39,39,39,1,0.686824957,0.662671924,0.535677589,0.456735874,TRUE,,,,,,,,,,,,,,,,,,,,,,,,,,,,,,,,,
test_after_changes,2023-11-15_09h45.23.669,two_step_task_legacy,2022.2.4,Win32,59.99520038,41,learning,0,resources/alien2_norm.png,0.683582687,resources/alien1_norm.png,0.701252715,TRUE,TRUE,3,0.169053345,red,m,0.4106,alien1,TRUE,3,0.89229093,25,0,0.701252715,m,0.2485,0,40,40,40,1,0.701252715,0.683582687,0.514353351,0.444802595,TRUE,,,,,,,,,,,,,,,,,,,,,,,,,,,,,,,,,
test_after_changes,2023-11-15_09h45.23.669,two_step_task_legacy,2022.2.4,Win32,59.99520038,41,learning,1,resources/alien3_norm.png,0.529381359,resources/alien4_norm.png,0.474099865,TRUE,TRUE,2,0.876475118,purple,m,0.8174,alien4,TRUE,3,0.811120128,25,0,0.474099865,m,0.7185,0,41,41,41,1,0.735883559,0.659710527,0.529381359,0.474099865,FALSE,,,,,,,,,,,,,,,,,,,,,,,,,,,,,,,,,
test_after_changes,2023-11-15_09h45.23.669,two_step_task_legacy,2022.2.4,Win32,59.99520038,41,learning,0,resources/alien2_norm.png,0.656265655,resources/alien1_norm.png,0.698407408,TRUE,TRUE,3,0.068118959,red,m,0.0674,alien1,TRUE,3,0.962400455,25,0,0.698407408,m,0.0909,0,42,42,42,1,0.698407408,0.656265655,0.569051894,0.499578503,TRUE,,,,,,,,,,,,,,,,,,,,,,,,,,,,,,,,,
test_after_changes,2023-11-15_09h45.23.669,two_step_task_legacy,2022.2.4,Win32,59.99520038,41,learning,1,resources/alien3_norm.png,0.558922212,resources/alien4_norm.png,0.517139904,TRUE,TRUE,2,0.74578504,purple,m,0.4886,alien4,TRUE,2,0.362431774,26,1,0.517139904,m,0.0535,0,43,43,43,1,0.7442163,0.635050852,0.558922212,0.517139904,FALSE,,,,,,,,,,,,,,,,,,,,,,,,,,,,,,,,,
test_after_changes,2023-11-15_09h45.23.669,two_step_task_legacy,2022.2.4,Win32,59.99520038,41,learning,0,resources/alien1_norm.png,0.747567615,resources/alien2_norm.png,0.608699053,TRUE,TRUE,3,0.113612294,red,m,0.8357,alien2,TRUE,2,0.288543228,27,1,0.608699053,m,0.0267,0,44,44,44,1,0.747567615,0.608699053,0.608414695,0.563824608,FALSE,,,,,,,,,,,,,,,,,,,,,,,,,,,,,,,,,
test_after_changes,2023-11-15_09h45.23.669,two_step_task_legacy,2022.2.4,Win32,59.99520038,41,learning,1,resources/alien3_norm.png,0.592031585,resources/alien4_norm.png,0.577261292,TRUE,TRUE,2,0.730081073,purple,m,2.5605,alien4,TRUE,3,0.910313738,27,0,0.577261292,m,0.5033,0,45,45,45,1,0.732850337,0.616463301,0.592031585,0.577261292,FALSE,,,,,,,,,,,,,,,,,,,,,,,,,,,,,,,,,
test_after_changes,2023-11-15_09h45.23.669,two_step_task_legacy,2022.2.4,Win32,59.99520038,41,learning,1,resources/alien4_norm.png,0.616425469,resources/alien3_norm.png,0.586579464,TRUE,TRUE,2,0.892316784,purple,m,0.0508,none,FALSE,NA,,27,0,0.577261292,,,0,46,46,46,1,0.715828642,0.648648698,0.586579464,0.616425469,TRUE,,,,,,,,,,,,,,,,,,,,,,,,,,,,,,,,,
test_after_changes,2023-11-15_09h45.23.669,two_step_task_legacy,2022.2.4,Win32,59.99520038,41,learning,0,,,,,FALSE,FALSE,2,0.580559921,purple,,,,,,,,,,,,0,47,47,47,1,0.701654265,0.648684771,0.570981347,0.613264448,TRUE,,,,,,,,,,,,,,,,,,,,,,,,,,,,,,,,,
test_after_changes,2023-11-15_09h45.23.669,two_step_task_legacy,2022.2.4,Win32,59.99520038,41,learning,1,,,,,FALSE,FALSE,3,0.730212067,purple,,,,,,,,,,,,0,48,48,48,1,0.732315949,0.628861012,0.623729858,0.633249326,FALSE,,,,,,,,,,,,,,,,,,,,,,,,,,,,,,,,,
test_after_changes,2023-11-15_09h45.23.669,two_step_task_legacy,2022.2.4,Win32,59.99520038,41,learning,0,resources/alien4_norm.png,0.647257539,resources/alien3_norm.png,0.63551621,TRUE,TRUE,2,0.688924863,purple,x,2.4332,alien4,TRUE,3,0.817772133,27,0,0.647257539,x,0.0576,0,49,49,49,1,0.743730679,0.568101573,0.63551621,0.647257539,TRUE,,,,,,,,,,,,,,,,,,,,,,,,,,,,,,,,,
test_after_changes,2023-11-15_09h45.23.669,two_step_task_legacy,2022.2.4,Win32,59.99520038,41,learning,0,resources/alien3_norm.png,0.591204146,resources/alien4_norm.png,0.709977629,TRUE,TRUE,2,0.504668221,purple,x,0.1237,alien3,TRUE,2,0.173318325,28,1,0.591204146,x,0.7214,0,50,50,50,1,0.742405846,0.572548826,0.591204146,0.709977629,FALSE,,,,,,,,,,,,,,,,,,,,,,,,,,,,,,,,,
test_after_changes,2023-11-15_09h45.23.669,two_step_task_legacy,2022.2.4,Win32,59.99520038,41,learning,0,resources/alien3_norm.png,0.575730319,resources/alien4_norm.png,0.744945783,TRUE,TRUE,2,0.138407893,purple,x,0.1177,alien3,TRUE,2,0.569307759,29,1,0.575730319,x,0.1565,0,51,51,51,1,0.731656858,0.573059605,0.575730319,0.744945783,FALSE,,,,,,,,,,,,,,,,,,,,,,,,,,,,,,,,,
test_after_changes,2023-11-15_09h45.23.669,two_step_task_legacy,2022.2.4,Win32,59.99520038,41,learning,0,resources/alien4_norm.png,0.725062463,resources/alien3_norm.png,0.559049285,TRUE,TRUE,2,0.241543479,purple,x,0.4396,alien4,TRUE,3,0.733536135,29,0,0.725062463,x,0.3634,0,52,52,52,1,0.722202375,0.60094317,0.559049285,0.725062463,TRUE,,,,,,,,,,,,,,,,,,,,,,,,,,,,,,,,,
test_after_changes,2023-11-15_09h45.23.669,two_step_task_legacy,2022.2.4,Win32,59.99520038,41,learning,1,resources/alien2_norm.png,0.616272459,resources/alien1_norm.png,0.747378689,TRUE,TRUE,3,0.943875369,red,x,0.0378,alien2,TRUE,3,0.755845611,29,0,0.616272459,x,0.1723,0,53,53,53,1,0.747378689,0.616272459,0.57552337,0.745893196,TRUE,,,,,,,,,,,,,,,,,,,,,,,,,,,,,,,,,
test_after_changes,2023-11-15_09h45.23.669,two_step_task_legacy,2022.2.4,Win32,59.99520038,41,learning,0,resources/alien3_norm.png,0.596085384,resources/alien4_norm.png,0.740868649,TRUE,TRUE,2,0.681673958,purple,x,0.2036,alien3,TRUE,3,0.715991002,29,0,0.596085384,x,0.1094,0,54,54,54,1,0.685531181,0.603674478,0.596085384,0.740868649,FALSE,,,,,,,,,,,,,,,,,,,,,,,,,,,,,,,,,
test_after_changes,2023-11-15_09h45.23.669,two_step_task_legacy,2022.2.4,Win32,59.99520038,41,learning,0,resources/alien4_norm.png,0.724326154,resources/alien3_norm.png,0.577550956,TRUE,TRUE,2,0.22934963,purple,x,0.1267,alien4,TRUE,2,0.343393308,30,1,0.724326154,x,0.4511,0,55,55,55,1,0.688074556,0.625850557,0.577550956,0.724326154,TRUE,,,,,,,,,,,,,,,,,,,,,,,,,,,,,,,,,
test_after_changes,2023-11-15_09h45.23.669,two_step_task_legacy,2022.2.4,Win32,59.99520038,41,learning,0,resources/alien3_norm.png,0.584079294,resources/alien4_norm.png,0.728943976,TRUE,TRUE,2,0.434093119,purple,x,0.042,alien3,TRUE,2,0.378745597,31,1,0.584079294,x,0.2068,0,56,56,56,1,0.663246753,0.617190689,0.584079294,0.728943976,FALSE,,,,,,,,,,,,,,,,,,,,,,,,,,,,,,,,,
test_after_changes,2023-11-15_09h45.23.669,two_step_task_legacy,2022.2.4,Win32,59.99520038,41,learning,1,resources/alien1_norm.png,0.648444122,resources/alien2_norm.png,0.611121997,TRUE,TRUE,3,0.957679865,red,x,0.2008,alien1,TRUE,2,0.271610476,32,1,0.648444122,x,0.0451,0,57,57,57,1,0.648444122,0.611121997,0.578067357,0.749481486,FALSE,,,,,,,,,,,,,,,,,,,,,,,,,,,,,,,,,
test_after_changes,2023-11-15_09h45.23.669,two_step_task_legacy,2022.2.4,Win32,59.99520038,41,learning,0,resources/alien3_norm.png,0.598288486,resources/alien4_norm.png,0.721493407,TRUE,TRUE,2,0.429048761,purple,x,0.1673,alien3,TRUE,2,0.038119451,33,1,0.598288486,x,0.1031,0,58,58,58,1,0.676622776,0.625101394,0.598288486,0.721493407,FALSE,,,,,,,,,,,,,,,,,,,,,,,,,,,,,,,,,
test_after_changes,2023-11-15_09h45.23.669,two_step_task_legacy,2022.2.4,Win32,59.99520038,41,learning,0,resources/alien4_norm.png,0.714889988,resources/alien3_norm.png,0.557855925,TRUE,TRUE,2,0.436491376,purple,x,0.0729,alien4,TRUE,2,0.453621158,34,1,0.714889988,x,0.2652,0,59,59,59,1,0.689847488,0.665800562,0.557855925,0.714889988,TRUE,,,,,,,,,,,,,,,,,,,,,,,,,,,,,,,,,
test_after_changes,2023-11-15_09h45.23.669,two_step_task_legacy,2022.2.4,Win32,59.99520038,41,learning,1,resources/alien1_norm.png,0.717720941,resources/alien2_norm.png,0.648669251,TRUE,TRUE,3,0.979391203,red,x,0.1093,alien1,TRUE,3,0.947891651,34,0,0.717720941,x,0.0951,0,60,60,60,1,0.717720941,0.648669251,0.531914095,0.6693347,FALSE,,,,,,,,,,,,,,,,,,,,,,,,,,,,,,,,,
test_after_changes,2023-11-15_09h45.23.669,two_step_task_legacy,2022.2.4,Win32,59.99520038,41,learning,0,resources/alien4_norm.png,0.679727111,resources/alien3_norm.png,0.510276235,TRUE,TRUE,2,0.069891584,purple,x,0.0841,alien4,TRUE,2,0.452322431,35,1,0.679727111,x,0.0608,0,61,61,61,1,0.661610946,0.646860561,0.510276235,0.679727111,TRUE,,,,,,,,,,,,,,,,,,,,,,,,,,,,,,,,,
test_after_changes,2023-11-15_09h45.23.669,two_step_task_legacy,2022.2.4,Win32,59.99520038,41,learning,0,resources/alien4_norm.png,0.695042862,resources/alien3_norm.png,0.49869813,TRUE,TRUE,2,0.591459627,purple,x,1.9202,alien4,TRUE,3,0.860538509,35,0,0.695042862,x,0.1177,0,62,62,62,1,0.656145255,0.627004415,0.49869813,0.695042862,TRUE,,,,,,,,,,,,,,,,,,,,,,,,,,,,,,,,,
test_after_changes,2023-11-15_09h45.23.669,two_step_task_legacy,2022.2.4,Win32,59.99520038,41,learning,0,resources/alien3_norm.png,0.54503642,resources/alien4_norm.png,0.72246338,TRUE,TRUE,2,0.117186468,purple,x,0.1346,alien3,TRUE,2,0.354925943,36,1,0.54503642,x,0.4678,0,63,63,63,1,0.630791729,0.629113125,0.54503642,0.72246338,FALSE,,,,,,,,,,,,,,,,,,,,,,,,,,,,,,,,,
test_after_changes,2023-11-15_09h45.23.669,two_step_task_legacy,2022.2.4,Win32,59.99520038,41,learning,1,resources/alien2_norm.png,0.65370092,resources/alien1_norm.png,0.612540457,TRUE,TRUE,3,0.782553144,red,x,0.0174,alien2,TRUE,2,0.529371033,37,1,0.65370092,x,0.0054,0,64,64,64,1,0.612540457,0.65370092,0.543735631,0.700523395,TRUE,,,,,,,,,,,,,,,,,,,,,,,,,,,,,,,,,
test_after_changes,2023-11-15_09h45.23.669,two_step_task_legacy,2022.2.4,Win32,59.99520038,41,learning,0,resources/alien2_norm.png,0.683022062,resources/alien1_norm.png,0.59867619,TRUE,TRUE,3,0.395849253,red,m,0.0387,alien1,TRUE,3,0.59936753,37,0,0.59867619,m,0.1987,0,65,65,65,1,0.59867619,0.683022062,0.518545963,0.697685388,TRUE,,,,,,,,,,,,,,,,,,,,,,,,,,,,,,,,,
test_after_changes,2023-11-15_09h45.23.669,two_step_task_legacy,2022.2.4,Win32,59.99520038,41,learning,1,resources/alien4_norm.png,0.693832384,resources/alien3_norm.png,0.508248899,TRUE,TRUE,2,0.84644677,purple,m,0.1175,alien4,TRUE,3,0.89612444,37,0,0.693832384,x,0.0012,0,66,66,66,1,0.625425207,0.674654184,0.508248899,0.693832384,TRUE,,,,,,,,,,,,,,,,,,,,,,,,,,,,,,,,,
test_after_changes,2023-11-15_09h45.23.669,two_step_task_legacy,2022.2.4,Win32,59.99520038,41,learning,0,resources/alien3_norm.png,0.525062901,resources/alien4_norm.png,0.675420829,TRUE,TRUE,2,0.044111516,purple,x,0.0677,alien3,TRUE,2,0.241666296,38,1,0.525062901,x,0.0118,0,67,67,67,1,0.655675286,0.701507056,0.525062901,0.675420829,FALSE,,,,,,,,,,,,,,,,,,,,,,,,,,,,,,,,,
test_after_changes,2023-11-15_09h45.23.669,two_step_task_legacy,2022.2.4,Win32,59.99520038,41,learning,1,resources/alien2_norm.png,0.67166996,resources/alien1_norm.png,0.637758686,TRUE,TRUE,3,0.847460977,red,x,0.2276,alien1,TRUE,2,0.611601886,39,1,0.637758686,m,0.114,0,68,68,68,1,0.637758686,0.67166996,0.551839449,0.642448274,TRUE,,,,,,,,,,,,,,,,,,,,,,,,,,,,,,,,,
test_after_changes,2023-11-15_09h45.23.669,two_step_task_legacy,2022.2.4,Win32,59.99520038,41,learning,0,resources/alien4_norm.png,0.640383184,resources/alien3_norm.png,0.548248453,TRUE,TRUE,2,0.335943946,purple,x,0.4239,alien4,TRUE,2,0.059863898,40,1,0.640383184,x,0.0176,0,69,69,69,1,0.671744386,0.647407293,0.548248453,0.640383184,TRUE,,,,,,,,,,,,,,,,,,,,,,,,,,,,,,,,,
test_after_changes,2023-11-15_09h45.23.669,two_step_task_legacy,2022.2.4,Win32,59.99520038,41,learning,0,resources/alien3_norm.png,0.55259829,resources/alien4_norm.png,0.599602124,TRUE,TRUE,2,0.156605892,purple,x,0.0949,alien3,TRUE,3,0.735527826,40,0,0.55259829,x,0.2005,0,70,70,70,1,0.717480766,0.636657553,0.55259829,0.599602124,FALSE,,,,,,,,,,,,,,,,,,,,,,,,,,,,,,,,,
test_after_changes,2023-11-15_09h45.23.669,two_step_task_legacy,2022.2.4,Win32,59.99520038,41,learning,0,resources/alien4_norm.png,0.607966578,resources/alien3_norm.png,0.582043005,TRUE,TRUE,2,0.1109857,purple,x,0.022,alien3,TRUE,3,0.846008595,40,0,0.582043005,m,0.0068,0,71,71,71,1,0.700684726,0.636086446,0.582043005,0.607966578,TRUE,,,,,,,,,,,,,,,,,,,,,,,,,,,,,,,,,
test_after_changes,2023-11-15_09h45.23.669,two_step_task_legacy,2022.2.4,Win32,59.99520038,41,learning,0,resources/alien4_norm.png,0.645982736,resources/alien3_norm.png,0.596964849,TRUE,TRUE,2,0.405011134,purple,x,0.0602,alien4,TRUE,2,0.158717226,41,1,0.645982736,x,0.0176,0,72,72,72,1,0.668092692,0.63923175,0.596964849,0.645982736,TRUE,,,,,,,,,,,,,,,,,,,,,,,,,,,,,,,,,
test_after_changes,2023-11-15_09h45.23.669,two_step_task_legacy,2022.2.4,Win32,59.99520038,41,learning,1,resources/alien2_norm.png,0.660846117,resources/alien1_norm.png,0.686325338,TRUE,TRUE,3,0.831837965,red,x,0.0843,alien2,TRUE,3,0.864663616,41,0,0.660846117,x,0.1743,0,73,73,73,1,0.686325338,0.660846117,0.599337874,0.611402388,TRUE,,,,,,,,,,,,,,,,,,,,,,,,,,,,,,,,,
test_after_changes,2023-11-15_09h45.23.669,two_step_task_legacy,2022.2.4,Win32,59.99520038,41,learning,1,resources/alien1_norm.png,0.681522799,resources/alien2_norm.png,0.63603781,TRUE,TRUE,3,0.778479672,red,x,0.0867,alien1,TRUE,2,0.59615189,42,1,0.681522799,x,0.0655,0,74,74,74,1,0.681522799,0.63603781,0.584931769,0.578757794,FALSE,,,,,,,,,,,,,,,,,,,,,,,,,,,,,,,,,
test_after_changes,2023-11-15_09h45.23.669,two_step_task_legacy,2022.2.4,Win32,59.99520038,41,learning,0,resources/alien2_norm.png,0.668013482,resources/alien1_norm.png,0.694546121,TRUE,TRUE,3,0.239707635,red,m,0.0841,alien2,TRUE,2,0.283819548,43,1,0.668013482,x,0.0008,0,75,75,75,1,0.694546121,0.668013482,0.58633745,0.583999801,TRUE,,,,,,,,,,,,,,,,,,,,,,,,,,,,,,,,,
test_after_changes,2023-11-15_09h45.23.669,two_step_task_legacy,2022.2.4,Win32,59.99520038,41,learning,0,resources/alien4_norm.png,0.58256071,resources/alien3_norm.png,0.618572647,TRUE,TRUE,2,0.556857941,purple,x,0.2133,alien4,TRUE,2,0.492603745,44,1,0.58256071,x,0.0125,0,76,76,76,1,0.688428203,0.670972145,0.618572647,0.58256071,TRUE,,,,,,,,,,,,,,,,,,,,,,,,,,,,,,,,,
test_after_changes,2023-11-15_09h45.23.669,two_step_task_legacy,2022.2.4,Win32,59.99520038,41,learning,0,resources/alien4_norm.png,0.567633367,resources/alien3_norm.png,0.611596499,TRUE,TRUE,2,0.662315053,purple,x,0.3428,alien4,TRUE,2,0.04614578,45,1,0.567633367,x,0.2388,0,77,77,77,1,0.684514858,0.69222779,0.611596499,0.567633367,TRUE,,,,,,,,,,,,,,,,,,,,,,,,,,,,,,,,,
test_after_changes,2023-11-15_09h45.23.669,two_step_task_legacy,2022.2.4,Win32,59.99520038,41,learning,1,resources/alien2_norm.png,0.744148077,resources/alien1_norm.png,0.648201548,TRUE,TRUE,3,0.809719733,red,x,0.0668,alien2,TRUE,3,0.888268728,45,0,0.744148077,x,0.1711,0,78,78,78,1,0.648201548,0.744148077,0.616008699,0.583935421,TRUE,,,,,,,,,,,,,,,,,,,,,,,,,,,,,,,,,
test_after_changes,2023-11-15_09h45.23.669,two_step_task_legacy,2022.2.4,Win32,59.99520038,41,learning,0,resources/alien3_norm.png,0.64486417,resources/alien4_norm.png,0.552496533,TRUE,TRUE,2,0.529331764,purple,x,0.0113,alien4,TRUE,2,0.366088655,46,1,0.552496533,m,0.001,0,79,79,79,1,0.635827969,0.721433206,0.64486417,0.552496533,FALSE,,,,,,,,,,,,,,,,,,,,,,,,,,,,,,,,,
test_after_changes,2023-11-15_09h45.23.669,two_step_task_legacy,2022.2.4,Win32,59.99520038,41,learning,0,resources/alien3_norm.png,0.647788484,resources/alien4_norm.png,0.521841309,TRUE,TRUE,2,0.424457516,purple,x,0.2359,alien3,TRUE,2,0.278406794,47,1,0.647788484,x,0.167,0,80,80,80,1,0.673456106,0.676189685,0.647788484,0.521841309,FALSE,,,,,,,,,,,,,,,,,,,,,,,,,,,,,,,,,
test_after_changes,2023-11-15_09h45.23.669,two_step_task_legacy,2022.2.4,Win32,59.99520038,41,learning,0,resources/alien3_norm.png,0.685354512,resources/alien4_norm.png,0.527047195,TRUE,TRUE,2,0.394290603,purple,x,0.1199,alien3,TRUE,3,0.699712821,47,0,0.685354512,x,0.1164,0,81,81,81,1,0.689133456,0.665185929,0.685354512,0.527047195,FALSE,,,,,,,,,,,,,,,,,,,,,,,,,,,,,,,,,
test_after_changes,2023-11-15_09h45.23.669,two_step_task_legacy,2022.2.4,Win32,59.99520038,41,learning,1,resources/alien1_norm.png,0.706821286,resources/alien2_norm.png,0.698886555,TRUE,TRUE,3,0.70431857,red,x,0.2135,alien1,TRUE,2,0.150240556,48,1,0.706821286,x,0.1278,0,82,82,82,1,0.706821286,0.698886555,0.729212051,0.536142419,FALSE,,,,,,,,,,,,,,,,,,,,,,,,,,,,,,,,,
test_after_changes,2023-11-15_09h45.23.669,two_step_task_legacy,2022.2.4,Win32,59.99520038,41,learning,0,resources/alien3_norm.png,0.743470703,resources/alien4_norm.png,0.523815865,TRUE,TRUE,2,0.658702997,purple,x,0.1845,alien3,TRUE,2,0.190361231,49,1,0.743470703,x,0.0894,0,83,83,83,1,0.695989226,0.696312699,0.743470703,0.523815865,FALSE,,,,,,,,,,,,,,,,,,,,,,,,,,,,,,,,,
test_after_changes,2023-11-15_09h45.23.669,two_step_task_legacy,2022.2.4,Win32,59.99520038,41,learning,1,resources/alien2_norm.png,0.649733708,resources/alien1_norm.png,0.734701173,TRUE,TRUE,3,0.828156149,red,x,0.0024,alien2,TRUE,3,0.892466665,49,0,0.649733708,x,0.0662,0,84,84,84,1,0.734701173,0.649733708,0.740120038,0.562465929,TRUE,,,,,,,,,,,,,,,,,,,,,,,,,,,,,,,,,
test_after_changes,2023-11-15_09h45.23.669,two_step_task_legacy,2022.2.4,Win32,59.99520038,41,learning,1,resources/alien1_norm.png,0.685639988,resources/alien2_norm.png,0.614575836,TRUE,TRUE,3,0.934347137,red,x,0.0372,alien1,TRUE,3,0.698917237,49,0,0.685639988,x,0.2731,0,85,85,85,1,0.685639988,0.614575836,0.747459119,0.560395165,FALSE,,,,,,,,,,,,,,,,,,,,,,,,,,,,,,,,,
test_after_changes,2023-11-15_09h45.23.669,two_step_task_legacy,2022.2.4,Win32,59.99520038,41,learning,0,resources/alien4_norm.png,0.553950792,resources/alien3_norm.png,0.739747496,TRUE,TRUE,2,0.30134786,purple,x,0.1451,alien4,TRUE,3,0.599873948,49,0,0.553950792,x,0.0204,0,86,86,86,1,0.747269927,0.635889034,0.739747496,0.553950792,TRUE,,,,,,,,,,,,,,,,,,,,,,,,,,,,,,,,,
test_after_changes,2023-11-15_09h45.23.669,two_step_task_legacy,2022.2.4,Win32,59.99520038,41,learning,1,resources/alien2_norm.png,0.615434995,resources/alien1_norm.png,0.723611405,TRUE,TRUE,3,0.96286823,red,x,0.2018,alien2,TRUE,2,0.490227231,50,1,0.615434995,x,0.1044,0,87,87,87,1,0.723611405,0.615434995,0.720528232,0.540800492,TRUE,,,,,,,,,,,,,,,,,,,,,,,,,,,,,,,,,
test_after_changes,2023-11-15_09h45.23.669,two_step_task_legacy,2022.2.4,Win32,59.99520038,41,learning,1,resources/alien2_norm.png,0.617571559,resources/alien1_norm.png,0.733565483,TRUE,TRUE,3,0.775413311,red,x,0.0609,alien2,TRUE,3,0.819294145,50,0,0.617571559,x,0.1006,0,88,88,88,1,0.733565483,0.617571559,0.720139582,0.552648518,TRUE,,,,,,,,,,,,,,,,,,,,,,,,,,,,,,,,,
test_after_changes,2023-11-15_09h45.23.669,two_step_task_legacy,2022.2.4,Win32,59.99520038,41,learning,0,resources/alien3_norm.png,0.710865526,resources/alien4_norm.png,0.525233651,TRUE,TRUE,2,0.088870407,purple,x,0.186,alien3,TRUE,3,0.721697032,50,0,0.710865526,x,0.1309,0,89,89,89,1,0.716799535,0.62032434,0.710865526,0.525233651,FALSE,,,,,,,,,,,,,,,,,,,,,,,,,,,,,,,,,
test_after_changes,2023-11-15_09h45.23.669,two_step_task_legacy,2022.2.4,Win32,59.99520038,41,learning,0,resources/alien4_norm.png,0.477030298,resources/alien3_norm.png,0.707326247,TRUE,TRUE,2,0.063913672,purple,x,0.1858,alien4,TRUE,3,0.635477428,50,0,0.477030298,x,0.129,0,90,90,90,1,0.697708351,0.592138281,0.707326247,0.477030298,TRUE,,,,,,,,,,,,,,,,,,,,,,,,,,,,,,,,,
test_after_changes,2023-11-15_09h45.23.669,two_step_task_legacy,2022.2.4,Win32,59.99520038,41,learning,0,resources/alien4_norm.png,0.485490214,resources/alien3_norm.png,0.693235307,TRUE,TRUE,2,0.365529291,purple,x,0.1835,alien4,TRUE,3,0.619438932,50,0,0.485490214,x,0.0841,0,91,91,91,1,0.656811595,0.578162809,0.693235307,0.485490214,TRUE,,,,,,,,,,,,,,,,,,,,,,,,,,,,,,,,,
test_after_changes,2023-11-15_09h45.23.669,two_step_task_legacy,2022.2.4,Win32,59.99520038,41,learning,0,resources/alien4_norm.png,0.435668915,resources/alien3_norm.png,0.702752807,TRUE,TRUE,2,0.677061967,purple,x,0.0338,alien4,TRUE,3,0.833883631,50,0,0.435668915,x,0.0833,0,92,92,92,1,0.672837186,0.565150917,0.702752807,0.435668915,TRUE,,,,,,,,,,,,,,,,,,,,,,,,,,,,,,,,,
test_after_changes,2023-11-15_09h45.23.669,two_step_task_legacy,2022.2.4,Win32,59.99520038,41,learning,1,resources/alien1_norm.png,0.676148976,resources/alien2_norm.png,0.529168175,TRUE,TRUE,3,0.725339503,red,x,0.1549,alien1,TRUE,3,0.804966168,50,0,0.676148976,x,0.0695,0,93,93,93,1,0.676148976,0.529168175,0.651971234,0.460123955,FALSE,,,,,,,,,,,,,,,,,,,,,,,,,,,,,,,,,
test_after_changes,2023-11-15_09h45.23.669,two_step_task_legacy,2022.2.4,Win32,59.99520038,41,learning,0,resources/alien4_norm.png,0.462021783,resources/alien3_norm.png,0.666368314,TRUE,TRUE,2,0.323818463,purple,x,0.122,alien4,TRUE,2,0.44973027,51,1,0.462021783,x,0.0291,0,94,94,94,1,0.635695198,0.550348922,0.666368314,0.462021783,TRUE,,,,,,,,,,,,,,,,,,,,,,,,,,,,,,,,,
test_after_changes,2023-11-15_09h45.23.669,two_step_task_legacy,2022.2.4,Win32,59.99520038,41,learning,0,resources/alien3_norm.png,0.675864002,resources/alien4_norm.png,0.464566239,TRUE,TRUE,2,0.347775635,purple,x,0.0912,alien3,TRUE,3,0.918666691,51,0,0.675864002,x,0.0008,0,95,95,95,1,0.64731031,0.540740978,0.675864002,0.464566239,FALSE,,,,,,,,,,,,,,,,,,,,,,,,,,,,,,,,,
test_after_changes,2023-11-15_09h45.23.669,two_step_task_legacy,2022.2.4,Win32,59.99520038,41,learning,1,resources/alien1_norm.png,0.616107931,resources/alien2_norm.png,0.470510182,TRUE,TRUE,3,0.834711719,red,x,0.073,alien1,TRUE,2,0.240822794,52,1,0.616107931,x,0.0613,0,96,96,96,1,0.616107931,0.470510182,0.681668623,0.457390436,FALSE,,,,,,,,,,,,,,,,,,,,,,,,,,,,,,,,,
test_after_changes,2023-11-15_09h45.23.669,two_step_task_legacy,2022.2.4,Win32,59.99520038,41,learning,0,resources/alien4_norm.png,0.515938065,resources/alien3_norm.png,0.680331253,TRUE,TRUE,2,0.024804862,purple,x,0.119,alien4,TRUE,2,0.129810789,53,1,0.515938065,x,0.0525,0,97,97,97,1,0.649745482,0.470491496,0.680331253,0.515938065,TRUE,,,,,,,,,,,,,,,,,,,,,,,,,,,,,,,,,
test_after_changes,2023-11-15_09h45.23.669,two_step_task_legacy,2022.2.4,Win32,59.99520038,41,learning,0,resources/alien3_norm.png,0.673122691,resources/alien4_norm.png,0.481141694,TRUE,TRUE,2,0.618584958,purple,x,0.0614,alien3,TRUE,2,0.584377666,54,1,0.673122691,x,0.0197,0,98,98,98,1,0.66691481,0.458699425,0.673122691,0.481141694,FALSE,,,,,,,,,,,,,,,,,,,,,,,,,,,,,,,,,
test_after_changes,2023-11-15_09h45.23.669,two_step_task_legacy,2022.2.4,Win32,59.99520038,41,learning,0,resources/alien3_norm.png,0.670114402,resources/alien4_norm.png,0.452733412,TRUE,TRUE,2,0.094032297,purple,x,0.0058,alien3,TRUE,2,0.020860736,55,1,0.670114402,x,0.3175,0,99,99,99,1,0.670163,0.440355987,0.670114402,0.452733412,FALSE,,,,,,,,,,,,,,,,,,,,,,,,,,,,,,,,,
test_after_changes,2023-11-15_09h45.23.669,two_step_task_legacy,2022.2.4,Win32,59.99520038,41,learning,1,resources/alien1_norm.png,0.662758721,resources/alien2_norm.png,0.410336414,TRUE,TRUE,3,0.781003577,red,x,0.2278,alien1,TRUE,2,0.337521026,56,1,0.662758721,x,0.2305,0,100,100,100,1,0.662758721,0.410336414,0.642860081,0.461700993,FALSE,,,,,,,,,,,,,,,,,,,,,,,,,,,,,,,,,
test_after_changes,2023-11-15_09h45.23.669,two_step_task_legacy,2022.2.4,Win32,59.99520038,41,learning,0,resources/alien4_norm.png,0.454211483,resources/alien3_norm.png,0.646010365,TRUE,TRUE,2,0.057526901,purple,x,0.0934,alien4,TRUE,3,0.683147426,56,0,0.454211483,x,0.1195,0,101,101,101,1,0.643313989,0.424058962,0.646010365,0.454211483,TRUE,,,,,,,,,,,,,,,,,,,,,,,,,,,,,,,,,
test_after_changes,2023-11-15_09h45.23.669,two_step_task_legacy,2022.2.4,Win32,59.99520038,41,learning,1,resources/alien2_norm.png,0.389917938,resources/alien1_norm.png,0.631476746,TRUE,TRUE,3,0.989934607,red,x,0.1583,alien2,TRUE,3,0.589058729,56,0,0.389917938,x,0.1022,0,102,102,102,1,0.631476746,0.389917938,0.686955458,0.403618261,TRUE,,,,,,,,,,,,,,,,,,,,,,,,,,,,,,,,,
test_after_changes,2023-11-15_09h45.23.669,two_step_task_legacy,2022.2.4,Win32,59.99520038,41,learning,1,resources/alien1_norm.png,0.607448023,resources/alien2_norm.png,0.403863017,TRUE,TRUE,3,0.819875923,red,x,0.1904,alien1,TRUE,2,0.154616759,57,1,0.607448023,x,0.0291,0,103,103,103,1,0.607448023,0.403863017,0.689619337,0.408997292,FALSE,,,,,,,,,,,,,,,,,,,,,,,,,,,,,,,,,
test_after_changes,2023-11-15_09h45.23.669,two_step_task_legacy,2022.2.4,Win32,59.99520038,41,learning,0,resources/alien3_norm.png,0.705183971,resources/alien4_norm.png,0.360989718,TRUE,TRUE,2,0.200468751,purple,x,0.1751,alien3,TRUE,3,0.854551173,57,0,0.705183971,x,0.0815,0,104,104,104,1,0.619684973,0.32950117,0.705183971,0.360989718,FALSE,,,,,,,,,,,,,,,,,,,,,,,,,,,,,,,,,
test_after_changes,2023-11-15_09h45.23.669,two_step_task_legacy,2022.2.4,Win32,59.99520038,41,learning,0,resources/alien3_norm.png,0.681410354,resources/alien4_norm.png,0.380752686,TRUE,TRUE,2,0.643959797,purple,x,0.3355,alien3,TRUE,2,0.627398714,58,1,0.681410354,x,0.2062,0,105,105,105,1,0.626375391,0.324837411,0.681410354,0.380752686,FALSE,,,,,,,,,,,,,,,,,,,,,,,,,,,,,,,,,
test_after_changes,2023-11-15_09h45.23.669,two_step_task_legacy,2022.2.4,Win32,59.99520038,41,learning,1,resources/alien1_norm.png,0.615880608,resources/alien2_norm.png,0.30981068,TRUE,TRUE,3,0.824501257,red,x,0.0081,alien1,TRUE,2,0.136860051,59,1,0.615880608,x,0.0544,0,106,106,106,1,0.615880608,0.30981068,0.698260812,0.408132147,FALSE,,,,,,,,,,,,,,,,,,,,,,,,,,,,,,,,,
test_after_changes,2023-11-15_09h45.23.669,two_step_task_legacy,2022.2.4,Win32,59.99520038,41,learning,1,resources/alien2_norm.png,0.292426972,resources/alien1_norm.png,0.62523509,TRUE,TRUE,3,0.913130176,red,x,0.1887,alien2,TRUE,3,0.839294089,59,0,0.292426972,x,0.1519,0,107,107,107,1,0.62523509,0.292426972,0.676320094,0.382292006,TRUE,,,,,,,,,,,,,,,,,,,,,,,,,,,,,,,,,
test_after_changes,2023-11-15_09h45.23.669,two_step_task_legacy,2022.2.4,Win32,59.99520038,41,learning,0,resources/alien4_norm.png,0.37300537,resources/alien3_norm.png,0.660357999,TRUE,TRUE,2,0.466651235,purple,x,0.1005,alien4,TRUE,3,0.79483824,59,0,0.37300537,x,0.1563,0,108,108,108,1,0.598569321,0.344907943,0.660357999,0.37300537,TRUE,,,,,,,,,,,,,,,,,,,,,,,,,,,,,,,,,
test_after_changes,2023-11-15_09h45.23.669,two_step_task_legacy,2022.2.4,Win32,59.99520038,41,learning,0,resources/alien4_norm.png,0.37993784,resources/alien3_norm.png,0.613979315,TRUE,TRUE,2,0.236786783,purple,x,0.0867,alien4,TRUE,3,0.792228727,59,0,0.37993784,x,0.5086,0,109,109,109,1,0.570361358,0.331154462,0.613979315,0.37993784,TRUE,,,,,,,,,,,,,,,,,,,,,,,,,,,,,,,,,
test_after_changes,2023-11-15_09h45.23.669,two_step_task_legacy,2022.2.4,Win32,59.99520038,41,learning,0,resources/alien4_norm.png,0.393058165,resources/alien3_norm.png,0.619699199,TRUE,TRUE,2,0.466931165,purple,x,0.163,alien4,TRUE,3,0.905619783,59,0,0.393058165,x,0.0394,0,110,110,110,1,0.58740035,0.337657948,0.619699199,0.393058165,TRUE,,,,,,,,,,,,,,,,,,,,,,,,,,,,,,,,,
test_after_changes,2023-11-15_09h45.23.669,two_step_task_legacy,2022.2.4,Win32,59.99520038,41,learning,0,resources/alien4_norm.png,0.416497809,resources/alien3_norm.png,0.619510259,TRUE,TRUE,2,0.424927829,purple,x,0.1997,alien4,TRUE,2,0.392949454,60,1,0.416497809,x,0.1934,0,111,111,111,1,0.559911302,0.359047055,0.619510259,0.416497809,TRUE,,,,,,,,,,,,,,,,,,,,,,,,,,,,,,,,,
test_after_changes,2023-11-15_09h45.23.669,two_step_task_legacy,2022.2.4,Win32,59.99520038,41,learning,0,resources/alien4_norm.png,0.435958342,resources/alien3_norm.png,0.613611162,TRUE,TRUE,2,0.085412635,purple,x,0.0948,alien4,TRUE,3,0.585025655,60,0,0.435958342,x,0.1834,0,112,112,112,1,0.545494272,0.411191307,0.613611162,0.435958342,TRUE,,,,,,,,,,,,,,,,,,,,,,,,,,,,,,,,,
test_after_changes,2023-11-15_09h45.23.669,two_step_task_legacy,2022.2.4,Win32,59.99520038,41,learning,0,resources/alien3_norm.png,0.637218142,resources/alien4_norm.png,0.452738616,TRUE,TRUE,2,0.567600616,purple,x,0.7539,alien3,TRUE,2,0.259387526,61,1,0.637218142,x,0.8073,0,113,113,113,1,0.579246776,0.440247332,0.637218142,0.452738616,FALSE,,,,,,,,,,,,,,,,,,,,,,,,,,,,,,,,,
test_after_changes,2023-11-15_09h45.23.669,two_step_task_legacy,2022.2.4,Win32,59.99520038,41,learning,1,resources/alien2_norm.png,0.425079018,resources/alien1_norm.png,0.583340322,TRUE,TRUE,3,0.865758545,red,x,0.102,alien2,TRUE,2,0.134719579,62,1,0.425079018,x,0.0014,0,114,114,114,1,0.583340322,0.425079018,0.596355675,0.468325959,TRUE,,,,,,,,,,,,,,,,,,,,,,,,,,,,,,,,,
test_after_changes,2023-11-15_09h45.23.669,two_step_task_legacy,2022.2.4,Win32,59.99520038,41,learning,1,resources/alien1_norm.png,0.604945689,resources/alien2_norm.png,0.434492892,TRUE,TRUE,3,0.742465646,red,x,0.1962,alien1,TRUE,3,0.87216583,62,0,0.604945689,x,0.1126,0,115,115,115,1,0.604945689,0.434492892,0.576655415,0.460870818,FALSE,,,,,,,,,,,,,,,,,,,,,,,,,,,,,,,,,
test_after_changes,2023-11-15_09h45.23.669,two_step_task_legacy,2022.2.4,Win32,59.99520038,41,learning,0,resources/alien4_norm.png,0.448255298,resources/alien3_norm.png,0.614935872,TRUE,TRUE,2,0.690007188,purple,x,0.0022,alien4,TRUE,3,0.843552079,62,0,0.448255298,x,0.0561,0,116,116,116,1,0.586469122,0.411991774,0.614935872,0.448255298,TRUE,,,,,,,,,,,,,,,,,,,,,,,,,,,,,,,,,
test_after_changes,2023-11-15_09h45.23.669,two_step_task_legacy,2022.2.4,Win32,59.99520038,41,learning,0,resources/alien3_norm.png,0.642948289,resources/alien4_norm.png,0.438237026,TRUE,TRUE,2,0.372248795,purple,x,0.5413,alien3,TRUE,2,0.151750646,63,1,0.642948289,x,0.106,0,117,117,117,1,0.597680175,0.407781491,0.642948289,0.438237026,FALSE,,,,,,,,,,,,,,,,,,,,,,,,,,,,,,,,,
test_after_changes,2023-11-15_09h45.23.669,two_step_task_legacy,2022.2.4,Win32,59.99520038,41,learning,0,resources/alien4_norm.png,0.404509124,resources/alien3_norm.png,0.602822322,TRUE,TRUE,2,0.547953243,purple,x,0.1498,alien4,TRUE,3,0.637003426,63,0,0.404509124,x,0.113,0,118,118,118,1,0.607140369,0.404204885,0.602822322,0.404509124,TRUE,,,,,,,,,,,,,,,,,,,,,,,,,,,,,,,,,
test_after_changes,2023-11-15_09h45.23.669,two_step_task_legacy,2022.2.4,Win32,59.99520038,41,learning,0,resources/alien4_norm.png,0.401051938,resources/alien3_norm.png,0.580273823,TRUE,TRUE,2,0.232115636,purple,x,0.4667,alien4,TRUE,3,0.579978472,63,0,0.401051938,x,0.0163,0,119,119,119,1,0.645920283,0.380959241,0.580273823,0.401051938,TRUE,,,,,,,,,,,,,,,,,,,,,,,,,,,,,,,,,
test_after_changes,2023-11-15_09h45.23.669,two_step_task_legacy,2022.2.4,Win32,59.99520038,41,learning,0,resources/alien4_norm.png,0.412259552,resources/alien3_norm.png,0.631562859,TRUE,TRUE,2,0.254863969,purple,x,0.0017,alien4,TRUE,3,0.516374864,63,0,0.412259552,x,0.0831,0,120,120,120,1,0.658547117,0.392859086,0.631562859,0.412259552,TRUE,,,,,,,,,,,,,,,,,,,,,,,,,,,,,,,,,
test_after_changes,2023-11-15_09h45.23.669,two_step_task_legacy,2022.2.4,Win32,59.99520038,41,learning,0,resources/alien4_norm.png,0.395928975,resources/alien3_norm.png,0.604082121,TRUE,TRUE,2,0.651617097,purple,x,0.0183,alien4,TRUE,2,0.36040157,64,1,0.395928975,x,0.0284,0,121,121,121,1,0.650404676,0.360451327,0.604082121,0.395928975,TRUE,,,,,,,,,,,,,,,,,,,,,,,,,,,,,,,,,
test_after_changes,2023-11-15_09h45.23.669,two_step_task_legacy,2022.2.4,Win32,59.99520038,41,learning,1,resources/alien2_norm.png,0.355956285,resources/alien1_norm.png,0.673272533,TRUE,TRUE,3,0.75322893,red,x,0.0736,alien2,TRUE,3,0.486390099,64,0,0.355956285,x,0.0947,0,122,122,122,1,0.673272533,0.355956285,0.628665817,0.386308261,TRUE,,,,,,,,,,,,,,,,,,,,,,,,,,,,,,,,,
test_after_changes,2023-11-15_09h45.23.669,two_step_task_legacy,2022.2.4,Win32,59.99520038,41,learning,0,resources/alien3_norm.png,0.610103866,resources/alien4_norm.png,0.357718182,TRUE,TRUE,2,0.613879219,purple,x,0.4767,alien3,TRUE,3,0.635850103,64,0,0.610103866,x,0.2363,0,123,123,123,1,0.670632873,0.327747525,0.610103866,0.357718182,FALSE,,,,,,,,,,,,,,,,,,,,,,,,,,,,,,,,,
test_after_changes,2023-11-15_09h45.23.669,two_step_task_legacy,2022.2.4,Win32,59.99520038,41,learning,0,resources/alien3_norm.png,0.613229285,resources/alien4_norm.png,0.37097985,TRUE,TRUE,2,0.067363284,purple,x,0.4082,alien3,TRUE,2,0.524791027,65,1,0.613229285,x,0.2012,0,124,124,124,1,0.657862677,0.344154365,0.613229285,0.37097985,FALSE,,,,,,,,,,,,,,,,,,,,,,,,,,,,,,,,,
test_after_changes,2023-11-15_09h45.23.669,two_step_task_legacy,2022.2.4,Win32,59.99520038,41,learning,0,resources/alien4_norm.png,0.381658026,resources/alien3_norm.png,0.610850875,TRUE,TRUE,2,0.556232106,purple,x,0.0219,alien4,TRUE,3,0.45883268,65,0,0.381658026,x,0.0008,0,125,125,125,1,0.621544128,0.309658221,0.610850875,0.381658026,TRUE,,,,,,,,,,,,,,,,,,,,,,,,,,,,,,,,,
test_after_changes,2023-11-15_09h45.23.669,two_step_task_legacy,2022.2.4,Win32,59.99520038,41,learning,1,resources/alien1_norm.png,0.638765158,resources/alien2_norm.png,0.331079162,TRUE,TRUE,3,0.702948008,red,x,1.2078,alien1,TRUE,2,0.317923378,66,1,0.638765158,x,0.174,0,126,126,126,1,0.638765158,0.331079162,0.609641124,0.398279361,FALSE,,,,,,,,,,,,,,,,,,,,,,,,,,,,,,,,,
test_after_changes,2023-11-15_09h45.23.669,two_step_task_legacy,2022.2.4,Win32,59.99520038,41,learning,0,resources/alien3_norm.png,0.58487235,resources/alien4_norm.png,0.373544908,TRUE,TRUE,2,0.561922482,purple,x,0.201,alien3,TRUE,3,0.720973539,66,0,0.58487235,x,0.0389,0,127,127,127,1,0.626231969,0.317571318,0.58487235,0.373544908,FALSE,,,,,,,,,,,,,,,,,,,,,,,,,,,,,,,,,
test_after_changes,2023-11-15_09h45.23.669,two_step_task_legacy,2022.2.4,Win32,59.99520038,41,learning,1,resources/alien2_norm.png,0.327327384,resources/alien1_norm.png,0.678718937,TRUE,TRUE,3,0.930466992,red,x,0.1467,alien2,TRUE,3,0.744513381,66,0,0.327327384,x,0.0834,0,128,128,128,1,0.678718937,0.327327384,0.568265306,0.391101509,TRUE,,,,,,,,,,,,,,,,,,,,,,,,,,,,,,,,,
test_after_changes,2023-11-15_09h45.23.669,two_step_task_legacy,2022.2.4,Win32,59.99520038,41,learning,0,resources/alien3_norm.png,0.597478578,resources/alien4_norm.png,0.421707366,TRUE,TRUE,2,0.019359991,purple,x,0.5837,alien3,TRUE,3,0.698965677,66,0,0.597478578,x,0.0531,0,129,129,129,1,0.684288487,0.320525721,0.597478578,0.421707366,FALSE,,,,,,,,,,,,,,,,,,,,,,,,,,,,,,,,,
test_after_changes,2023-11-15_09h45.23.669,two_step_task_legacy,2022.2.4,Win32,59.99520038,41,learning,1,resources/alien2_norm.png,0.343294024,resources/alien1_norm.png,0.708061265,TRUE,TRUE,3,0.919547959,red,x,0.0335,alien2,TRUE,3,0.820635384,66,0,0.343294024,x,0.1222,0,130,130,130,1,0.708061265,0.343294024,0.601527307,0.43392991,TRUE,,,,,,,,,,,,,,,,,,,,,,,,,,,,,,,,,
test_after_changes,2023-11-15_09h45.23.669,two_step_task_legacy,2022.2.4,Win32,59.99520038,41,learning,0,resources/alien3_norm.png,0.64763363,resources/alien4_norm.png,0.426719665,TRUE,TRUE,2,0.187606697,purple,x,0.0524,alien3,TRUE,2,0.134511799,67,1,0.64763363,x,0.1009,0,131,131,131,1,0.686290312,0.382507356,0.64763363,0.426719665,FALSE,,,,,,,,,,,,,,,,,,,,,,,,,,,,,,,,,
test_after_changes,2023-11-15_09h45.23.669,two_step_task_legacy,2022.2.4,Win32,59.99520038,41,learning,0,resources/alien4_norm.png,0.46105971,resources/alien3_norm.png,0.651574397,TRUE,TRUE,2,0.061338677,purple,x,0.2236,alien4,TRUE,3,0.567668168,67,0,0.46105971,x,0.0897,0,132,132,132,1,0.699484736,0.351467325,0.651574397,0.46105971,TRUE,,,,,,,,,,,,,,,,,,,,,,,,,,,,,,,,,
test_after_changes,2023-11-15_09h45.23.669,two_step_task_legacy,2022.2.4,Win32,59.99520038,41,learning,0,resources/alien3_norm.png,0.646278608,resources/alien4_norm.png,0.445730538,TRUE,TRUE,2,0.192517839,purple,x,0.3667,alien3,TRUE,2,0.457404474,68,1,0.646278608,x,0.1024,0,133,133,133,1,0.641468852,0.341104878,0.646278608,0.445730538,FALSE,,,,,,,,,,,,,,,,,,,,,,,,,,,,,,,,,
test_after_changes,2023-11-15_09h45.23.669,two_step_task_legacy,2022.2.4,Win32,59.99520038,41,learning,0,resources/alien3_norm.png,0.567315406,resources/alien4_norm.png,0.415065107,TRUE,TRUE,2,0.086002269,purple,x,0.3332,alien3,TRUE,3,0.613615274,68,0,0.567315406,x,0.1279,0,134,134,134,1,0.644630983,0.334501306,0.567315406,0.415065107,FALSE,,,,,,,,,,,,,,,,,,,,,,,,,,,,,,,,,
test_after_changes,2023-11-15_09h45.23.669,two_step_task_legacy,2022.2.4,Win32,59.99520038,41,learning,0,resources/alien3_norm.png,0.546803619,resources/alien4_norm.png,0.435505403,TRUE,TRUE,2,0.655730268,purple,x,0.023,alien3,TRUE,3,0.686610887,68,0,0.546803619,x,0.1251,0,135,135,135,1,0.62177449,0.306808941,0.546803619,0.435505403,FALSE,,,,,,,,,,,,,,,,,,,,,,,,,,,,,,,,,
test_after_changes,2023-11-15_09h45.23.669,two_step_task_legacy,2022.2.4,Win32,59.99520038,41,learning,0,resources/alien3_norm.png,0.530728159,resources/alien4_norm.png,0.435824404,TRUE,TRUE,2,0.17323591,purple,x,1.0953,alien3,TRUE,2,0.277028057,69,1,0.530728159,x,0.2247,0,136,136,136,1,0.583999286,0.335239917,0.530728159,0.435824404,FALSE,,,,,,,,,,,,,,,,,,,,,,,,,,,,,,,,,
test_after_changes,2023-11-15_09h45.23.669,two_step_task_legacy,2022.2.4,Win32,59.99520038,41,learning,0,resources/alien4_norm.png,0.410734121,resources/alien3_norm.png,0.526351702,TRUE,TRUE,2,0.569350956,purple,x,0.0969,alien4,TRUE,2,0.080810996,70,1,0.410734121,x,0.0628,0,137,137,137,1,0.622896698,0.307734706,0.526351702,0.410734121,TRUE,,,,,,,,,,,,,,,,,,,,,,,,,,,,,,,,,
test_after_changes,2023-11-15_09h45.23.669,two_step_task_legacy,2022.2.4,Win32,59.99520038,41,learning,0,resources/alien3_norm.png,0.540851944,resources/alien4_norm.png,0.424768301,TRUE,TRUE,2,0.579088458,purple,x,0.0755,alien3,TRUE,3,0.569190272,70,0,0.540851944,x,0.2793,0,138,138,138,1,0.652449873,0.293138513,0.540851944,0.424768301,FALSE,,,,,,,,,,,,,,,,,,,,,,,,,,,,,,,,,
test_after_changes,2023-11-15_09h45.23.669,two_step_task_legacy,2022.2.4,Win32,59.99520038,41,learning,1,resources/alien1_norm.png,0.641621388,resources/alien2_norm.png,0.272932121,TRUE,TRUE,3,0.715475642,red,x,0.123,alien1,TRUE,2,0.240478886,71,1,0.641621388,x,0.1117,0,139,139,139,1,0.641621388,0.272932121,0.526378494,0.405697073,FALSE,,,,,,,,,,,,,,,,,,,,,,,,,,,,,,,,,
test_after_changes,2023-11-15_09h45.23.669,two_step_task_legacy,2022.2.4,Win32,59.99520038,41,learning,0,resources/alien3_norm.png,0.5484319,resources/alien4_norm.png,0.443309791,TRUE,TRUE,2,0.216428368,purple,x,0.0008,alien3,TRUE,2,0.274869239,72,1,0.5484319,x,0.1224,0,140,140,140,1,0.62488726,0.255851205,0.5484319,0.443309791,FALSE,,,,,,,,,,,,,,,,,,,,,,,,,,,,,,,,,
test_after_changes,2023-11-15_09h45.23.669,two_step_task_legacy,2022.2.4,Win32,59.99520038,41,learning,0,resources/alien4_norm.png,0.47882794,resources/alien3_norm.png,0.528872078,TRUE,TRUE,2,0.687296494,purple,x,0.0168,alien4,TRUE,3,0.691894096,72,0,0.47882794,x,0.1294,0,141,141,141,1,0.662793601,0.257559917,0.528872078,0.47882794,TRUE,,,,,,,,,,,,,,,,,,,,,,,,,,,,,,,,,
test_after_changes,2023-11-15_09h45.23.669,two_step_task_legacy,2022.2.4,Win32,59.99520038,41,learning,0,resources/alien4_norm.png,0.463754704,resources/alien3_norm.png,0.534881349,TRUE,TRUE,2,0.62845382,purple,x,0.1052,alien4,TRUE,2,0.345307504,73,1,0.463754704,x,0.15,0,142,142,142,1,0.673804421,0.263651818,0.534881349,0.463754704,TRUE,,,,,,,,,,,,,,,,,,,,,,,,,,,,,,,,,
test_after_changes,2023-11-15_09h45.23.669,two_step_task_legacy,2022.2.4,Win32,59.99520038,41,learning,0,resources/alien4_norm.png,0.462479402,resources/alien3_norm.png,0.509649718,TRUE,TRUE,2,0.219110936,purple,x,0.1695,alien4,TRUE,3,0.787987907,73,0,0.462479402,x,0.219,0,143,143,143,1,0.698580012,0.269979962,0.509649718,0.462479402,TRUE,,,,,,,,,,,,,,,,,,,,,,,,,,,,,,,,,
test_after_changes,2023-11-15_09h45.23.669,two_step_task_legacy,2022.2.4,Win32,59.99520038,41,learning,0,resources/alien3_norm.png,0.586453861,resources/alien4_norm.png,0.449444223,TRUE,TRUE,2,0.023974772,purple,x,0.1837,alien3,TRUE,3,0.948701172,73,0,0.586453861,x,0.2049,0,144,144,144,1,0.736530576,0.296852887,0.586453861,0.449444223,FALSE,,,,,,,,,,,,,,,,,,,,,,,,,,,,,,,,,
test_after_changes,2023-11-15_09h45.23.669,two_step_task_legacy,2022.2.4,Win32,59.99520038,41,learning,1,resources/alien2_norm.png,0.285357955,resources/alien1_norm.png,0.729630293,TRUE,TRUE,3,0.752697015,red,x,0.1176,alien2,TRUE,3,0.31132692,73,0,0.285357955,x,0.0451,0,145,145,145,1,0.729630293,0.285357955,0.591891528,0.429541148,TRUE,,,,,,,,,,,,,,,,,,,,,,,,,,,,,,,,,
test_after_changes,2023-11-15_09h45.23.669,two_step_task_legacy,2022.2.4,Win32,59.99520038,41,learning,1,resources/alien2_norm.png,0.263038351,resources/alien1_norm.png,0.733408604,TRUE,TRUE,3,0.909583259,red,x,0.2264,alien2,TRUE,2,0.073439087,74,1,0.263038351,x,0.1389,0,146,146,146,1,0.733408604,0.263038351,0.600996283,0.450195866,TRUE,,,,,,,,,,,,,,,,,,,,,,,,,,,,,,,,,
test_after_changes,2023-11-15_09h45.23.669,two_step_task_legacy,2022.2.4,Win32,59.99520038,41,learning,0,resources/alien4_norm.png,0.445300194,resources/alien3_norm.png,0.595997484,TRUE,TRUE,2,0.193121766,purple,x,0.7246,alien4,TRUE,2,0.413837467,75,1,0.445300194,x,0.1242,0,147,147,147,1,0.711810619,0.298461205,0.595997484,0.445300194,TRUE,,,,,,,,,,,,,,,,,,,,,,,,,,,,,,,,,
test_after_changes,2023-11-15_09h45.23.669,two_step_task_legacy,2022.2.4,Win32,59.99520038,41,learning,0,resources/alien4_norm.png,0.429892682,resources/alien3_norm.png,0.600330442,TRUE,TRUE,2,0.670576209,purple,x,0.1561,alien4,TRUE,3,0.863219871,75,0,0.429892682,x,0.2188,0,148,148,148,1,0.687823782,0.306984466,0.600330442,0.429892682,TRUE,,,,,,,,,,,,,,,,,,,,,,,,,,,,,,,,,
test_after_changes,2023-11-15_09h45.23.669,two_step_task_legacy,2022.2.4,Win32,59.99520038,41,learning,0,resources/alien3_norm.png,0.630930916,resources/alien4_norm.png,0.426929955,TRUE,TRUE,2,0.10463076,purple,x,0.0884,alien3,TRUE,2,0.17310523,76,1,0.630930916,x,0.0008,0,149,149,149,1,0.68869481,0.319584149,0.630930916,0.426929955,FALSE,,,,,,,,,,,,,,,,,,,,,,,,,,,,,,,,,
test_after_changes,2023-11-15_09h45.23.669,two_step_task_legacy,2022.2.4,Win32,59.99520038,41,learning,1,resources/alien1_norm.png,0.7,resources/alien2_norm.png,0.3,TRUE,TRUE,3,0.701857986,red,x,0.0218,alien1,TRUE,2,0.329018569,77,1,0.7,x,0.1536,0,150,150,150,1,0.7,0.3,0.6,0.4,FALSE,,,,,,,,,,,,,,,,,,,,,,,,,,,,,,,,,
test_after_changes,2023-11-15_09h45.23.669,two_step_task_legacy,2022.2.4,Win32,59.99520038,41,learning,0,resources/alien3_norm.png,0.6,resources/alien4_norm.png,0.4,TRUE,TRUE,2,0.180782651,purple,x,0.73,alien3,TRUE,3,0.744562479,77,0,0.6,x,0.1298,0,151,151,151,1,0.7,0.3,0.6,0.4,FALSE,,,,,,,,,,,,,,,,,,,,,,,,,,,,,,,,,
test_after_changes,2023-11-15_09h45.23.669,two_step_task_legacy,2022.2.4,Win32,59.99520038,41,learning,0,resources/alien3_norm.png,0.6,resources/alien4_norm.png,0.4,TRUE,TRUE,2,0.665803341,purple,x,0.1564,alien3,TRUE,3,0.702178914,77,0,0.6,x,0.191,0,152,152,152,1,0.7,0.3,0.6,0.4,FALSE,,,,,,,,,,,,,,,,,,,,,,,,,,,,,,,,,
test_after_changes,2023-11-15_09h45.23.669,two_step_task_legacy,2022.2.4,Win32,59.99520038,41,learning,0,resources/alien4_norm.png,0.4,resources/alien3_norm.png,0.6,TRUE,TRUE,2,0.666443908,purple,x,0.1419,alien4,TRUE,3,0.938876737,77,0,0.4,x,0.1295,0,153,153,153,1,0.7,0.3,0.6,0.4,TRUE,,,,,,,,,,,,,,,,,,,,,,,,,,,,,,,,,
test_after_changes,2023-11-15_09h45.23.669,two_step_task_legacy,2022.2.4,Win32,59.99520038,41,learning,0,resources/alien3_norm.png,0.6,resources/alien4_norm.png,0.4,TRUE,TRUE,2,0.694394579,purple,x,0.1407,alien3,TRUE,2,0.489479332,78,1,0.6,x,0.1732,0,154,154,154,1,0.7,0.3,0.6,0.4,FALSE,,,,,,,,,,,,,,,,,,,,,,,,,,,,,,,,,
test_after_changes,2023-11-15_09h45.23.669,two_step_task_legacy,2022.2.4,Win32,59.99520038,41,learning,1,resources/alien2_norm.png,0.3,resources/alien1_norm.png,0.7,TRUE,TRUE,3,0.928066269,red,x,0.0836,alien2,TRUE,3,0.599385266,78,0,0.3,x,0.1217,0,155,155,155,1,0.7,0.3,0.6,0.4,TRUE,,,,,,,,,,,,,,,,,,,,,,,,,,,,,,,,,
test_after_changes,2023-11-15_09h45.23.669,two_step_task_legacy,2022.2.4,Win32,59.99520038,41,learning,0,resources/alien4_norm.png,0.4,resources/alien3_norm.png,0.6,TRUE,TRUE,2,0.249479806,purple,x,0.15,alien4,TRUE,2,0.139034214,79,1,0.4,x,0.07,0,156,156,156,1,0.7,0.3,0.6,0.4,TRUE,,,,,,,,,,,,,,,,,,,,,,,,,,,,,,,,,
test_after_changes,2023-11-15_09h45.23.669,two_step_task_legacy,2022.2.4,Win32,59.99520038,41,learning,0,resources/alien4_norm.png,0.4,resources/alien3_norm.png,0.6,TRUE,TRUE,2,0.184792781,purple,x,0.6539,alien4,TRUE,2,0.159876125,80,1,0.4,x,0.1215,0,157,157,157,1,0.7,0.3,0.6,0.4,TRUE,,,,,,,,,,,,,,,,,,,,,,,,,,,,,,,,,
test_after_changes,2023-11-15_09h45.23.669,two_step_task_legacy,2022.2.4,Win32,59.99520038,41,learning,0,resources/alien3_norm.png,0.6,resources/alien4_norm.png,0.4,TRUE,TRUE,2,0.296085274,purple,x,1.0876,alien3,TRUE,2,0.402206185,81,1,0.6,x,0.0888,0,158,158,158,1,0.7,0.3,0.6,0.4,FALSE,,,,,,,,,,,,,,,,,,,,,,,,,,,,,,,,,
test_after_changes,2023-11-15_09h45.23.669,two_step_task_legacy,2022.2.4,Win32,59.99520038,41,learning,0,resources/alien3_norm.png,0.6,resources/alien4_norm.png,0.4,TRUE,TRUE,2,0.033723133,purple,x,0.0506,alien3,TRUE,2,0.028760005,82,1,0.6,x,0.1537,0,159,159,159,1,0.7,0.3,0.6,0.4,FALSE,,,,,,,,,,,,,,,,,,,,,,,,,,,,,,,,,
test_after_changes,2023-11-15_09h45.23.669,two_step_task_legacy,2022.2.4,Win32,59.99520038,41,learning,0,resources/alien4_norm.png,0.4,resources/alien3_norm.png,0.6,TRUE,TRUE,2,0.690796822,purple,x,0.1633,alien4,TRUE,3,0.960103423,82,0,0.4,x,0.1718,0,160,160,160,1,0.7,0.3,0.6,0.4,TRUE,,,,,,,,,,,,,,,,,,,,,,,,,,,,,,,,,
test_after_changes,2023-11-15_09h45.23.669,two_step_task_legacy,2022.2.4,Win32,59.99520038,41,learning,0,resources/alien3_norm.png,0.6,resources/alien4_norm.png,0.4,TRUE,TRUE,2,0.321262084,purple,x,0.0298,alien3,TRUE,2,0.013582964,83,1,0.6,x,0.0852,0,161,161,161,1,0.7,0.3,0.6,0.4,FALSE,,,,,,,,,,,,,,,,,,,,,,,,,,,,,,,,,
test_after_changes,2023-11-15_09h45.23.669,two_step_task_legacy,2022.2.4,Win32,59.99520038,41,learning,1,resources/alien1_norm.png,0.7,resources/alien2_norm.png,0.3,TRUE,TRUE,3,0.920631257,red,x,0.1896,alien1,TRUE,2,0.260800441,84,1,0.7,x,0.2148,0,162,162,162,1,0.7,0.3,0.6,0.4,FALSE,,,,,,,,,,,,,,,,,,,,,,,,,,,,,,,,,
test_after_changes,2023-11-15_09h45.23.669,two_step_task_legacy,2022.2.4,Win32,59.99520038,41,learning,0,resources/alien4_norm.png,0.4,resources/alien3_norm.png,0.6,TRUE,TRUE,2,0.416383119,purple,x,0.0412,alien3,TRUE,2,0.00624003,85,1,0.6,m,0.753,0,163,163,163,1,0.7,0.3,0.6,0.4,TRUE,,,,,,,,,,,,,,,,,,,,,,,,,,,,,,,,,
test_after_changes,2023-11-15_09h45.23.669,two_step_task_legacy,2022.2.4,Win32,59.99520038,41,learning,0,resources/alien2_norm.png,0.3,resources/alien1_norm.png,0.7,TRUE,TRUE,3,0.202893656,red,m,0.1086,alien1,TRUE,3,0.804225445,85,0,0.7,m,0.0728,0,164,164,164,1,0.7,0.3,0.6,0.4,TRUE,,,,,,,,,,,,,,,,,,,,,,,,,,,,,,,,,
test_after_changes,2023-11-15_09h45.23.669,two_step_task_legacy,2022.2.4,Win32,59.99520038,41,learning,0,resources/alien2_norm.png,0.3,resources/alien1_norm.png,0.7,TRUE,TRUE,3,0.483916941,red,m,0.1712,alien1,TRUE,2,0.1178778,86,1,0.7,m,0.1219,0,165,165,165,1,0.7,0.3,0.6,0.4,TRUE,,,,,,,,,,,,,,,,,,,,,,,,,,,,,,,,,
test_after_changes,2023-11-15_09h45.23.669,two_step_task_legacy,2022.2.4,Win32,59.99520038,41,learning,0,resources/alien2_norm.png,0.3,resources/alien1_norm.png,0.7,TRUE,TRUE,3,0.276900427,red,m,0.0007,alien1,TRUE,3,0.899441331,86,0,0.7,m,0.1512,0,166,166,166,1,0.7,0.3,0.6,0.4,TRUE,,,,,,,,,,,,,,,,,,,,,,,,,,,,,,,,,
test_after_changes,2023-11-15_09h45.23.669,two_step_task_legacy,2022.2.4,Win32,59.99520038,41,learning,0,resources/alien1_norm.png,0.7,resources/alien2_norm.png,0.3,TRUE,TRUE,3,0.511030809,red,m,0.0332,alien2,TRUE,3,0.959944912,86,0,0.3,m,0.4962,0,167,167,167,1,0.7,0.3,0.6,0.4,FALSE,,,,,,,,,,,,,,,,,,,,,,,,,,,,,,,,,
test_after_changes,2023-11-15_09h45.23.669,two_step_task_legacy,2022.2.4,Win32,59.99520038,41,learning,0,resources/alien1_norm.png,0.7,resources/alien2_norm.png,0.3,TRUE,TRUE,3,0.226137436,red,m,0.1084,alien2,TRUE,3,0.780642872,86,0,0.3,m,0.1414,0,168,168,168,1,0.7,0.3,0.6,0.4,FALSE,,,,,,,,,,,,,,,,,,,,,,,,,,,,,,,,,
test_after_changes,2023-11-15_09h45.23.669,two_step_task_legacy,2022.2.4,Win32,59.99520038,41,learning,0,resources/alien2_norm.png,0.3,resources/alien1_norm.png,0.7,TRUE,TRUE,3,0.042019124,red,m,0.0933,alien1,TRUE,3,0.721044476,86,0,0.7,m,0.1427,0,169,169,169,1,0.7,0.3,0.6,0.4,TRUE,,,,,,,,,,,,,,,,,,,,,,,,,,,,,,,,,
test_after_changes,2023-11-15_09h45.23.669,two_step_task_legacy,2022.2.4,Win32,59.99520038,41,learning,0,resources/alien1_norm.png,0.7,resources/alien2_norm.png,0.3,TRUE,TRUE,3,0.315531598,red,m,0.1765,alien2,TRUE,3,0.843821667,86,0,0.3,m,0.1138,0,170,170,170,1,0.7,0.3,0.6,0.4,FALSE,,,,,,,,,,,,,,,,,,,,,,,,,,,,,,,,,
test_after_changes,2023-11-15_09h45.23.669,two_step_task_legacy,2022.2.4,Win32,59.99520038,41,learning,0,resources/alien1_norm.png,0.7,resources/alien2_norm.png,0.3,TRUE,TRUE,3,0.356036046,red,m,0.0027,alien2,TRUE,3,0.758410007,86,0,0.3,m,0.1672,0,171,171,171,1,0.7,0.3,0.6,0.4,FALSE,,,,,,,,,,,,,,,,,,,,,,,,,,,,,,,,,
test_after_changes,2023-11-15_09h45.23.669,two_step_task_legacy,2022.2.4,Win32,59.99520038,41,learning,0,resources/alien1_norm.png,0.7,resources/alien2_norm.png,0.3,TRUE,TRUE,3,0.116322102,red,m,0.0706,alien2,TRUE,3,0.751778498,86,0,0.3,m,0.0872,0,172,172,172,1,0.7,0.3,0.6,0.4,FALSE,,,,,,,,,,,,,,,,,,,,,,,,,,,,,,,,,
test_after_changes,2023-11-15_09h45.23.669,two_step_task_legacy,2022.2.4,Win32,59.99520038,41,learning,0,resources/alien1_norm.png,0.7,resources/alien2_norm.png,0.3,TRUE,TRUE,3,0.326962418,red,m,0.0958,alien2,TRUE,3,0.751283804,86,0,0.3,m,0.037,0,173,173,173,1,0.7,0.3,0.6,0.4,FALSE,,,,,,,,,,,,,,,,,,,,,,,,,,,,,,,,,
test_after_changes,2023-11-15_09h45.23.669,two_step_task_legacy,2022.2.4,Win32,59.99520038,41,learning,1,resources/alien4_norm.png,0.4,resources/alien3_norm.png,0.6,TRUE,TRUE,2,0.757174649,purple,m,0.0556,alien3,TRUE,2,0.258714111,87,1,0.6,m,0.0566,0,174,174,174,1,0.7,0.3,0.6,0.4,TRUE,,,,,,,,,,,,,,,,,,,,,,,,,,,,,,,,,
test_after_changes,2023-11-15_09h45.23.669,two_step_task_legacy,2022.2.4,Win32,59.99520038,41,learning,1,resources/alien4_norm.png,0.4,resources/alien3_norm.png,0.6,TRUE,TRUE,2,0.969850955,purple,m,0.094,alien3,TRUE,2,0.245490136,88,1,0.6,m,0.6662,0,175,175,175,1,0.7,0.3,0.6,0.4,TRUE,,,,,,,,,,,,,,,,,,,,,,,,,,,,,,,,,
test_after_changes,2023-11-15_09h45.23.669,two_step_task_legacy,2022.2.4,Win32,59.99520038,41,learning,0,resources/alien2_norm.png,0.3,resources/alien1_norm.png,0.7,TRUE,TRUE,3,0.103821499,red,m,0.0494,alien1,TRUE,2,0.318171437,89,1,0.7,m,0.0427,0,176,176,176,1,0.7,0.3,0.6,0.4,TRUE,,,,,,,,,,,,,,,,,,,,,,,,,,,,,,,,,
test_after_changes,2023-11-15_09h45.23.669,two_step_task_legacy,2022.2.4,Win32,59.99520038,41,learning,1,resources/alien4_norm.png,0.4,resources/alien3_norm.png,0.6,TRUE,TRUE,2,0.999414528,purple,m,0.0136,alien3,TRUE,2,0.017226299,90,1,0.6,m,0.0013,0,177,177,177,1,0.7,0.3,0.6,0.4,TRUE,,,,,,,,,,,,,,,,,,,,,,,,,,,,,,,,,
test_after_changes,2023-11-15_09h45.23.669,two_step_task_legacy,2022.2.4,Win32,59.99520038,41,learning,0,resources/alien1_norm.png,0.7,resources/alien2_norm.png,0.3,TRUE,TRUE,3,0.633018655,red,m,0.0761,alien2,TRUE,2,0.109121888,91,1,0.3,m,0.1859,0,178,178,178,1,0.7,0.3,0.6,0.4,FALSE,,,,,,,,,,,,,,,,,,,,,,,,,,,,,,,,,
test_after_changes,2023-11-15_09h45.23.669,two_step_task_legacy,2022.2.4,Win32,59.99520038,41,learning,0,resources/alien2_norm.png,0.3,resources/alien1_norm.png,0.7,TRUE,TRUE,3,0.126948547,red,m,0.0102,alien1,TRUE,2,0.01309767,92,1,0.7,m,0.0149,0,179,179,179,1,0.7,0.3,0.6,0.4,TRUE,,,,,,,,,,,,,,,,,,,,,,,,,,,,,,,,,
test_after_changes,2023-11-15_09h45.23.669,two_step_task_legacy,2022.2.4,Win32,59.99520038,41,learning,0,resources/alien2_norm.png,0.3,resources/alien1_norm.png,0.7,TRUE,TRUE,3,0.273923802,red,m,0.1034,alien1,TRUE,2,0.292291648,93,1,0.7,m,0.2218,0,180,180,180,1,0.7,0.3,0.6,0.4,TRUE,,,,,,,,,,,,,,,,,,,,,,,,,,,,,,,,,
test_after_changes,2023-11-15_09h45.23.669,two_step_task_legacy,2022.2.4,Win32,59.99520038,41,learning,0,resources/alien2_norm.png,0.3,resources/alien1_norm.png,0.7,TRUE,TRUE,3,0.380825332,red,m,0.3057,alien1,TRUE,2,0.687640501,94,1,0.7,m,0.0636,0,181,181,181,1,0.7,0.3,0.6,0.4,TRUE,,,,,,,,,,,,,,,,,,,,,,,,,,,,,,,,,
test_after_changes,2023-11-15_09h45.23.669,two_step_task_legacy,2022.2.4,Win32,59.99520038,41,learning,0,resources/alien2_norm.png,0.3,resources/alien1_norm.png,0.7,TRUE,TRUE,3,0.313401759,red,m,0.2173,alien1,TRUE,2,0.312568031,95,1,0.7,m,0.0591,0,182,182,182,1,0.7,0.3,0.6,0.4,TRUE,,,,,,,,,,,,,,,,,,,,,,,,,,,,,,,,,
test_after_changes,2023-11-15_09h45.23.669,two_step_task_legacy,2022.2.4,Win32,59.99520038,41,learning,1,resources/alien3_norm.png,0.6,resources/alien4_norm.png,0.4,TRUE,TRUE,2,0.852116686,purple,m,0.1943,alien4,TRUE,3,0.463344811,95,0,0.4,m,0.0355,0,183,183,183,1,0.7,0.3,0.6,0.4,FALSE,,,,,,,,,,,,,,,,,,,,,,,,,,,,,,,,,
test_after_changes,2023-11-15_09h45.23.669,two_step_task_legacy,2022.2.4,Win32,59.99520038,41,learning,1,resources/alien4_norm.png,0.4,resources/alien3_norm.png,0.6,TRUE,TRUE,2,0.997407952,purple,m,0.2236,alien3,TRUE,2,0.521854645,96,1,0.6,m,0.0143,0,184,184,184,1,0.7,0.3,0.6,0.4,TRUE,,,,,,,,,,,,,,,,,,,,,,,,,,,,,,,,,
test_after_changes,2023-11-15_09h45.23.669,two_step_task_legacy,2022.2.4,Win32,59.99520038,41,learning,0,resources/alien1_norm.png,0.7,resources/alien2_norm.png,0.3,TRUE,TRUE,3,0.478155613,red,m,0.06,alien2,TRUE,3,0.349570471,96,0,0.3,m,0.0859,0,185,185,185,1,0.7,0.3,0.6,0.4,FALSE,,,,,,,,,,,,,,,,,,,,,,,,,,,,,,,,,
test_after_changes,2023-11-15_09h45.23.669,two_step_task_legacy,2022.2.4,Win32,59.99520038,41,learning,1,resources/alien4_norm.png,0.4,resources/alien3_norm.png,0.6,TRUE,TRUE,2,0.793426622,purple,m,0.5396,alien3,TRUE,2,0.327735395,97,1,0.6,m,0.0379,0,186,186,186,1,0.7,0.3,0.6,0.4,TRUE,,,,,,,,,,,,,,,,,,,,,,,,,,,,,,,,,
test_after_changes,2023-11-15_09h45.23.669,two_step_task_legacy,2022.2.4,Win32,59.99520038,41,learning,0,resources/alien1_norm.png,0.7,resources/alien2_norm.png,0.3,TRUE,TRUE,3,0.050144026,red,m,0.1858,alien2,TRUE,3,0.596941326,97,0,0.3,m,0.0217,0,187,187,187,1,0.7,0.3,0.6,0.4,FALSE,,,,,,,,,,,,,,,,,,,,,,,,,,,,,,,,,
test_after_changes,2023-11-15_09h45.23.669,two_step_task_legacy,2022.2.4,Win32,59.99520038,41,learning,0,resources/alien1_norm.png,0.7,resources/alien2_norm.png,0.3,TRUE,TRUE,3,0.107693739,red,m,0.0543,alien2,TRUE,3,0.323867895,97,0,0.3,m,0.073,0,188,188,188,1,0.7,0.3,0.6,0.4,FALSE,,,,,,,,,,,,,,,,,,,,,,,,,,,,,,,,,
test_after_changes,2023-11-15_09h45.23.669,two_step_task_legacy,2022.2.4,Win32,59.99520038,41,learning,0,resources/alien2_norm.png,0.3,resources/alien1_norm.png,0.7,TRUE,TRUE,3,0.291994454,red,m,0.1043,alien1,TRUE,2,0.667387092,98,1,0.7,m,0.0628,0,189,189,189,1,0.7,0.3,0.6,0.4,TRUE,,,,,,,,,,,,,,,,,,,,,,,,,,,,,,,,,
test_after_changes,2023-11-15_09h45.23.669,two_step_task_legacy,2022.2.4,Win32,59.99520038,41,learning,0,resources/alien1_norm.png,0.7,resources/alien2_norm.png,0.3,TRUE,TRUE,3,0.631111295,red,m,0.2099,alien2,TRUE,3,0.824033004,98,0,0.3,m,0.0007,0,190,190,190,1,0.7,0.3,0.6,0.4,FALSE,,,,,,,,,,,,,,,,,,,,,,,,,,,,,,,,,
test_after_changes,2023-11-15_09h45.23.669,two_step_task_legacy,2022.2.4,Win32,59.99520038,41,learning,0,resources/alien1_norm.png,0.7,resources/alien2_norm.png,0.3,TRUE,TRUE,3,0.688617678,red,m,0.0998,alien2,TRUE,3,0.774921971,98,0,0.3,m,0.075,0,191,191,191,1,0.7,0.3,0.6,0.4,FALSE,,,,,,,,,,,,,,,,,,,,,,,,,,,,,,,,,
test_after_changes,2023-11-15_09h45.23.669,two_step_task_legacy,2022.2.4,Win32,59.99520038,41,learning,1,resources/alien4_norm.png,0.4,resources/alien3_norm.png,0.6,TRUE,TRUE,2,0.762956465,purple,m,0.2172,alien3,TRUE,3,0.655053334,98,0,0.6,m,0.0692,0,192,192,192,1,0.7,0.3,0.6,0.4,TRUE,,,,,,,,,,,,,,,,,,,,,,,,,,,,,,,,,
test_after_changes,2023-11-15_09h45.23.669,two_step_task_legacy,2022.2.4,Win32,59.99520038,41,learning,0,resources/alien2_norm.png,0.3,resources/alien1_norm.png,0.7,TRUE,TRUE,3,0.451155145,red,m,0.1501,alien1,TRUE,2,0.535081363,99,1,0.7,m,0.0256,0,193,193,193,1,0.7,0.3,0.6,0.4,TRUE,,,,,,,,,,,,,,,,,,,,,,,,,,,,,,,,,
test_after_changes,2023-11-15_09h45.23.669,two_step_task_legacy,2022.2.4,Win32,59.99520038,41,learning,0,resources/alien1_norm.png,0.7,resources/alien2_norm.png,0.3,TRUE,TRUE,3,0.354209617,red,m,0.157,alien2,TRUE,3,0.349662011,99,0,0.3,m,0.0656,0,194,194,194,1,0.7,0.3,0.6,0.4,FALSE,,,,,,,,,,,,,,,,,,,,,,,,,,,,,,,,,
test_after_changes,2023-11-15_09h45.23.669,two_step_task_legacy,2022.2.4,Win32,59.99520038,41,learning,0,resources/alien2_norm.png,0.3,resources/alien1_norm.png,0.7,TRUE,TRUE,3,0.025628212,red,m,0.0329,alien1,TRUE,3,0.754100277,99,0,0.7,m,0.0452,0,195,195,195,1,0.7,0.3,0.6,0.4,TRUE,,,,,,,,,,,,,,,,,,,,,,,,,,,,,,,,,
test_after_changes,2023-11-15_09h45.23.669,two_step_task_legacy,2022.2.4,Win32,59.99520038,41,learning,0,resources/alien2_norm.png,0.3,resources/alien1_norm.png,0.7,TRUE,TRUE,3,0.246505972,red,m,0.012,alien1,TRUE,2,0.311426484,100,1,0.7,m,0.0504,0,196,196,196,1,0.7,0.3,0.6,0.4,TRUE,,,,,,,,,,,,,,,,,,,,,,,,,,,,,,,,,
test_after_changes,2023-11-15_09h45.23.669,two_step_task_legacy,2022.2.4,Win32,59.99520038,41,learning,0,resources/alien2_norm.png,0.3,resources/alien1_norm.png,0.7,TRUE,TRUE,3,0.600425114,red,m,0.0683,alien1,TRUE,3,0.748702337,100,0,0.7,m,0.1072,0,197,197,197,1,0.7,0.3,0.6,0.4,TRUE,,,,,,,,,,,,,,,,,,,,,,,,,,,,,,,,,
test_after_changes,2023-11-15_09h45.23.669,two_step_task_legacy,2022.2.4,Win32,59.99520038,41,learning,0,resources/alien1_norm.png,0.7,resources/alien2_norm.png,0.3,TRUE,TRUE,3,0.45265774,red,m,0.0335,alien2,TRUE,2,0.204917189,101,1,0.3,m,0.0554,0,198,198,198,1,0.7,0.3,0.6,0.4,FALSE,,,,,,,,,,,,,,,,,,,,,,,,,,,,,,,,,
test_after_changes,2023-11-15_09h45.23.669,two_step_task_legacy,2022.2.4,Win32,59.99520038,41,learning,0,resources/alien1_norm.png,0.7,resources/alien2_norm.png,0.3,TRUE,TRUE,3,0.233757673,red,m,0.1801,alien2,TRUE,3,0.810222716,101,0,0.3,m,0.389,0,199,199,199,1,0.7,0.3,0.6,0.4,FALSE,,,,,,,,,,,,,,,,,,,,,,,,,,,,,,,,,
test_after_changes,2023-11-15_09h45.23.669,two_step_task_legacy,2022.2.4,Win32,59.99520038,41,learning,0,resources/alien2_norm.png,0.3,resources/alien1_norm.png,0.7,TRUE,TRUE,3,0.458399356,red,m,0.2169,alien1,TRUE,2,0.606563941,102,1,0.7,m,0.3298,0,200,200,200,1,0.7,0.3,0.6,0.4,TRUE,,,,,,,,,,,,,,,,,,,,,,,,,,,,,,,,,
test_after_changes,2023-11-15_09h45.23.669,two_step_task_legacy,2022.2.4,Win32,59.99520038,41,learning,0,resources/alien1_norm.png,0.7,resources/alien2_norm.png,0.3,TRUE,TRUE,3,0.281682092,red,m,0.2268,alien2,TRUE,3,0.804517879,102,0,0.3,m,0.036,0,201,201,201,1,0.7,0.3,0.6,0.4,FALSE,,,,,,,,,,,,,,,,,,,,,,,,,,,,,,,,,
test_after_changes,2023-11-15_09h45.23.669,two_step_task_legacy,2022.2.4,Win32,59.99520038,41,learning,0,resources/alien2_norm.png,0.3,resources/alien1_norm.png,0.7,TRUE,TRUE,3,0.385297168,red,m,0.1047,alien1,TRUE,2,0.638836986,103,1,0.7,m,0.2243,0,202,202,202,1,0.7,0.3,0.6,0.4,TRUE,,,,,,,,,,,,,,,,,,,,,,,,,,,,,,,,,
test_after_changes,2023-11-15_09h45.23.669,two_step_task_legacy,2022.2.4,Win32,59.99520038,41,learning,0,resources/alien1_norm.png,0.7,resources/alien2_norm.png,0.3,TRUE,TRUE,3,0.227908252,red,m,0.0362,alien2,TRUE,3,0.451218595,103,0,0.3,m,0.1798,0,203,203,203,1,0.7,0.3,0.6,0.4,FALSE,,,,,,,,,,,,,,,,,,,,,,,,,,,,,,,,,
test_after_changes,2023-11-15_09h45.23.669,two_step_task_legacy,2022.2.4,Win32,59.99520038,41,learning,0,resources/alien1_norm.png,0.7,resources/alien2_norm.png,0.3,TRUE,TRUE,3,0.595172503,red,m,0.0792,alien2,TRUE,3,0.670349628,103,0,0.3,m,0.3341,0,204,204,204,1,0.7,0.3,0.6,0.4,FALSE,,,,,,,,,,,,,,,,,,,,,,,,,,,,,,,,,
test_after_changes,2023-11-15_09h45.23.669,two_step_task_legacy,2022.2.4,Win32,59.99520038,41,learning,1,resources/alien3_norm.png,0.6,resources/alien4_norm.png,0.4,TRUE,TRUE,2,0.841308343,purple,m,0.1172,alien4,TRUE,3,0.941187685,103,0,0.4,m,0.0376,0,205,205,205,1,0.7,0.3,0.6,0.4,FALSE,,,,,,,,,,,,,,,,,,,,,,,,,,,,,,,,,
test_after_changes,2023-11-15_09h45.23.669,two_step_task_legacy,2022.2.4,Win32,59.99520038,41,learning,0,resources/alien2_norm.png,0.3,resources/alien1_norm.png,0.7,TRUE,TRUE,3,0.693062614,red,m,0.217,alien1,TRUE,2,0.088074486,104,1,0.7,m,0.1002,0,206,206,206,1,0.7,0.3,0.6,0.4,TRUE,,,,,,,,,,,,,,,,,,,,,,,,,,,,,,,,,
test_after_changes,2023-11-15_09h45.23.669,two_step_task_legacy,2022.2.4,Win32,59.99520038,41,learning,0,resources/alien2_norm.png,0.3,resources/alien1_norm.png,0.7,TRUE,TRUE,3,0.675522452,red,m,0.1506,alien1,TRUE,2,0.576492687,105,1,0.7,m,0.1672,0,207,207,207,1,0.7,0.3,0.6,0.4,TRUE,,,,,,,,,,,,,,,,,,,,,,,,,,,,,,,,,
test_after_changes,2023-11-15_09h45.23.669,two_step_task_legacy,2022.2.4,Win32,59.99520038,41,learning,1,resources/alien3_norm.png,0.6,resources/alien4_norm.png,0.4,TRUE,TRUE,2,0.996658415,purple,m,0.0305,alien4,TRUE,3,0.907862844,105,0,0.4,m,0.2358,0,208,208,208,1,0.7,0.3,0.6,0.4,FALSE,,,,,,,,,,,,,,,,,,,,,,,,,,,,,,,,,
test_after_changes,2023-11-15_09h45.23.669,two_step_task_legacy,2022.2.4,Win32,59.99520038,41,learning,0,resources/alien1_norm.png,0.7,resources/alien2_norm.png,0.3,TRUE,TRUE,3,0.456090616,red,m,0.1084,alien2,TRUE,3,0.554648169,105,0,0.3,m,0.1408,0,209,209,209,1,0.7,0.3,0.6,0.4,FALSE,,,,,,,,,,,,,,,,,,,,,,,,,,,,,,,,,
test_after_changes,2023-11-15_09h45.23.669,two_step_task_legacy,2022.2.4,Win32,59.99520038,41,learning,0,resources/alien1_norm.png,0.7,resources/alien2_norm.png,0.3,TRUE,TRUE,3,0.00682604,red,m,0.2604,alien2,TRUE,3,0.69960764,105,0,0.3,m,0.2559,0,210,210,210,1,0.7,0.3,0.6,0.4,FALSE,,,,,,,,,,,,,,,,,,,,,,,,,,,,,,,,,
test_after_changes,2023-11-15_09h45.23.669,two_step_task_legacy,2022.2.4,Win32,59.99520038,41,learning,0,resources/alien2_norm.png,0.3,resources/alien1_norm.png,0.7,TRUE,TRUE,3,0.088778691,red,m,0.4884,alien1,TRUE,2,0.186369126,106,1,0.7,m,0.1481,0,211,211,211,1,0.7,0.3,0.6,0.4,TRUE,,,,,,,,,,,,,,,,,,,,,,,,,,,,,,,,,
test_after_changes,2023-11-15_09h45.23.669,two_step_task_legacy,2022.2.4,Win32,59.99520038,41,learning,1,resources/alien4_norm.png,0.4,resources/alien3_norm.png,0.6,TRUE,TRUE,2,0.769389509,purple,m,0.1566,alien3,TRUE,2,0.045195446,107,1,0.6,m,0.1685,0,212,212,212,1,0.7,0.3,0.6,0.4,TRUE,,,,,,,,,,,,,,,,,,,,,,,,,,,,,,,,,
test_after_changes,2023-11-15_09h45.23.669,two_step_task_legacy,2022.2.4,Win32,59.99520038,41,learning,0,resources/alien1_norm.png,0.7,resources/alien2_norm.png,0.3,TRUE,TRUE,3,0.476258721,red,m,0.2745,alien2,TRUE,3,0.421627295,107,0,0.3,m,0.2885,0,213,213,213,1,0.7,0.3,0.6,0.4,FALSE,,,,,,,,,,,,,,,,,,,,,,,,,,,,,,,,,
test_after_changes,2023-11-15_09h45.23.669,two_step_task_legacy,2022.2.4,Win32,59.99520038,41,learning,0,resources/alien2_norm.png,0.3,resources/alien1_norm.png,0.7,TRUE,TRUE,3,0.483056833,red,m,0.0697,alien1,TRUE,2,0.567467988,108,1,0.7,m,0.0561,0,214,214,214,1,0.7,0.3,0.6,0.4,TRUE,,,,,,,,,,,,,,,,,,,,,,,,,,,,,,,,,
test_after_changes,2023-11-15_09h45.23.669,two_step_task_legacy,2022.2.4,Win32,59.99520038,41,learning,0,resources/alien2_norm.png,0.3,resources/alien1_norm.png,0.7,TRUE,TRUE,3,0.219557622,red,m,0.064,alien1,TRUE,2,0.135065144,109,1,0.7,m,0.1753,0,215,215,215,1,0.7,0.3,0.6,0.4,TRUE,,,,,,,,,,,,,,,,,,,,,,,,,,,,,,,,,
test_after_changes,2023-11-15_09h45.23.669,two_step_task_legacy,2022.2.4,Win32,59.99520038,41,learning,1,resources/alien3_norm.png,0.6,resources/alien4_norm.png,0.4,TRUE,TRUE,2,0.755208237,purple,m,0.1167,alien4,TRUE,3,0.670504246,109,0,0.4,m,0.2031,0,216,216,216,1,0.7,0.3,0.6,0.4,FALSE,,,,,,,,,,,,,,,,,,,,,,,,,,,,,,,,,
test_after_changes,2023-11-15_09h45.23.669,two_step_task_legacy,2022.2.4,Win32,59.99520038,41,learning,0,resources/alien2_norm.png,0.3,resources/alien1_norm.png,0.7,TRUE,TRUE,3,0.66459176,red,m,0.1512,alien1,TRUE,2,0.231634406,110,1,0.7,m,0.1254,0,217,217,217,1,0.7,0.3,0.6,0.4,TRUE,,,,,,,,,,,,,,,,,,,,,,,,,,,,,,,,,
test_after_changes,2023-11-15_09h45.23.669,two_step_task_legacy,2022.2.4,Win32,59.99520038,41,learning,1,resources/alien3_norm.png,0.6,resources/alien4_norm.png,0.4,TRUE,TRUE,2,0.968881537,purple,m,0.2002,alien4,TRUE,3,0.84381069,110,0,0.4,m,0.1087,0,218,218,218,1,0.7,0.3,0.6,0.4,FALSE,,,,,,,,,,,,,,,,,,,,,,,,,,,,,,,,,
test_after_changes,2023-11-15_09h45.23.669,two_step_task_legacy,2022.2.4,Win32,59.99520038,41,learning,0,resources/alien1_norm.png,0.7,resources/alien2_norm.png,0.3,TRUE,TRUE,3,0.370758235,red,m,0.4838,alien2,TRUE,3,0.920353344,110,0,0.3,m,0.3257,0,219,219,219,1,0.7,0.3,0.6,0.4,FALSE,,,,,,,,,,,,,,,,,,,,,,,,,,,,,,,,,
test_after_changes,2023-11-15_09h45.23.669,two_step_task_legacy,2022.2.4,Win32,59.99520038,41,learning,1,resources/alien3_norm.png,0.6,resources/alien4_norm.png,0.4,TRUE,TRUE,2,0.999751364,purple,m,0.1164,alien4,TRUE,3,0.88566279,110,0,0.4,m,0.1201,0,220,220,220,1,0.7,0.3,0.6,0.4,FALSE,,,,,,,,,,,,,,,,,,,,,,,,,,,,,,,,,
test_after_changes,2023-11-15_09h45.23.669,two_step_task_legacy,2022.2.4,Win32,59.99520038,41,learning,1,resources/alien4_norm.png,0.4,resources/alien3_norm.png,0.6,TRUE,TRUE,2,0.796490412,purple,m,0.0013,alien3,TRUE,2,0.549292761,111,1,0.6,m,0.1265,0,221,221,221,1,0.7,0.3,0.6,0.4,TRUE,,,,,,,,,,,,,,,,,,,,,,,,,,,,,,,,,
test_after_changes,2023-11-15_09h45.23.669,two_step_task_legacy,2022.2.4,Win32,59.99520038,41,learning,0,resources/alien1_norm.png,0.7,resources/alien2_norm.png,0.3,TRUE,TRUE,3,0.086400428,red,m,0.0732,alien2,TRUE,2,0.124513807,112,1,0.3,m,0.1529,0,222,222,222,1,0.7,0.3,0.6,0.4,FALSE,,,,,,,,,,,,,,,,,,,,,,,,,,,,,,,,,
test_after_changes,2023-11-15_09h45.23.669,two_step_task_legacy,2022.2.4,Win32,59.99520038,41,learning,1,resources/alien3_norm.png,0.6,resources/alien4_norm.png,0.4,TRUE,TRUE,2,0.711885899,purple,m,0.0727,alien4,TRUE,3,0.740526447,112,0,0.4,m,0.2423,0,223,223,223,1,0.7,0.3,0.6,0.4,FALSE,,,,,,,,,,,,,,,,,,,,,,,,,,,,,,,,,
test_after_changes,2023-11-15_09h45.23.669,two_step_task_legacy,2022.2.4,Win32,59.99520038,41,learning,0,resources/alien1_norm.png,0.7,resources/alien2_norm.png,0.3,TRUE,TRUE,3,0.60145826,red,m,0.0351,alien2,TRUE,3,0.481859609,112,0,0.3,m,0.0013,0,224,224,224,1,0.7,0.3,0.6,0.4,FALSE,,,,,,,,,,,,,,,,,,,,,,,,,,,,,,,,,
test_after_changes,2023-11-15_09h45.23.669,two_step_task_legacy,2022.2.4,Win32,59.99520038,41,learning,1,resources/alien4_norm.png,0.4,resources/alien3_norm.png,0.6,TRUE,TRUE,2,0.83144123,purple,m,0.1168,alien3,TRUE,3,0.891330526,112,0,0.6,m,0.1955,0,225,225,225,1,0.7,0.3,0.6,0.4,TRUE,,,,,,,,,,,,,,,,,,,,,,,,,,,,,,,,,
test_after_changes,2023-11-15_09h45.23.669,two_step_task_legacy,2022.2.4,Win32,59.99520038,41,learning,0,resources/alien1_norm.png,0.7,resources/alien2_norm.png,0.3,TRUE,TRUE,3,0.549889533,red,m,0.2843,alien2,TRUE,3,0.367968346,112,0,0.3,m,0.053,0,226,226,226,1,0.7,0.3,0.6,0.4,FALSE,,,,,,,,,,,,,,,,,,,,,,,,,,,,,,,,,
test_after_changes,2023-11-15_09h45.23.669,two_step_task_legacy,2022.2.4,Win32,59.99520038,41,learning,1,resources/alien3_norm.png,0.6,resources/alien4_norm.png,0.4,TRUE,TRUE,2,0.745813659,purple,m,0.0755,alien4,TRUE,3,0.923697716,112,0,0.4,m,0.001,0,227,227,227,1,0.7,0.3,0.6,0.4,FALSE,,,,,,,,,,,,,,,,,,,,,,,,,,,,,,,,,
test_after_changes,2023-11-15_09h45.23.669,two_step_task_legacy,2022.2.4,Win32,59.99520038,41,learning,0,resources/alien2_norm.png,0.3,resources/alien1_norm.png,0.7,TRUE,TRUE,3,0.057035012,red,m,0.0094,alien1,TRUE,3,0.756107228,112,0,0.7,m,0.0577,0,228,228,228,1,0.7,0.3,0.6,0.4,TRUE,,,,,,,,,,,,,,,,,,,,,,,,,,,,,,,,,
test_after_changes,2023-11-15_09h45.23.669,two_step_task_legacy,2022.2.4,Win32,59.99520038,41,learning,0,resources/alien2_norm.png,0.3,resources/alien1_norm.png,0.7,TRUE,TRUE,3,0.545369538,red,m,0.4009,alien1,TRUE,2,0.554312322,113,1,0.7,m,0.2052,0,229,229,229,1,0.7,0.3,0.6,0.4,TRUE,,,,,,,,,,,,,,,,,,,,,,,,,,,,,,,,,
test_after_changes,2023-11-15_09h45.23.669,two_step_task_legacy,2022.2.4,Win32,59.99520038,41,learning,0,resources/alien2_norm.png,0.3,resources/alien1_norm.png,0.7,TRUE,TRUE,3,0.320677081,red,m,0.1969,alien1,TRUE,3,0.89813712,113,0,0.7,m,0.2163,0,230,230,230,1,0.7,0.3,0.6,0.4,TRUE,,,,,,,,,,,,,,,,,,,,,,,,,,,,,,,,,
test_after_changes,2023-11-15_09h45.23.669,two_step_task_legacy,2022.2.4,Win32,59.99520038,41,learning,0,resources/alien3_norm.png,0.6,resources/alien4_norm.png,0.4,TRUE,TRUE,2,0.212997974,purple,x,0.1342,alien3,TRUE,3,0.662894664,113,0,0.6,x,1.9025,0,231,231,231,1,0.7,0.3,0.6,0.4,FALSE,,,,,,,,,,,,,,,,,,,,,,,,,,,,,,,,,
test_after_changes,2023-11-15_09h45.23.669,two_step_task_legacy,2022.2.4,Win32,59.99520038,41,learning,0,resources/alien4_norm.png,0.4,resources/alien3_norm.png,0.6,TRUE,TRUE,2,0.143206565,purple,x,0.1238,alien4,TRUE,3,0.661962645,113,0,0.4,x,0.0068,0,232,232,232,1,0.7,0.3,0.6,0.4,TRUE,,,,,,,,,,,,,,,,,,,,,,,,,,,,,,,,,
test_after_changes,2023-11-15_09h45.23.669,two_step_task_legacy,2022.2.4,Win32,59.99520038,41,learning,0,resources/alien4_norm.png,0.4,resources/alien3_norm.png,0.6,TRUE,TRUE,2,0.172422127,purple,x,0.116,alien4,TRUE,2,0.270828694,114,1,0.4,x,0.2709,0,233,233,233,1,0.7,0.3,0.6,0.4,TRUE,,,,,,,,,,,,,,,,,,,,,,,,,,,,,,,,,
test_after_changes,2023-11-15_09h45.23.669,two_step_task_legacy,2022.2.4,Win32,59.99520038,41,learning,0,resources/alien3_norm.png,0.6,resources/alien4_norm.png,0.4,TRUE,TRUE,2,0.340648561,purple,x,0.1225,alien3,TRUE,3,0.705676753,114,0,0.6,x,0.1809,0,234,234,234,1,0.7,0.3,0.6,0.4,FALSE,,,,,,,,,,,,,,,,,,,,,,,,,,,,,,,,,
test_after_changes,2023-11-15_09h45.23.669,two_step_task_legacy,2022.2.4,Win32,59.99520038,41,learning,0,resources/alien4_norm.png,0.4,resources/alien3_norm.png,0.6,TRUE,TRUE,2,0.27450152,purple,x,0.1898,alien4,TRUE,2,0.162129624,115,1,0.4,x,0.0008,0,235,235,235,1,0.7,0.3,0.6,0.4,TRUE,,,,,,,,,,,,,,,,,,,,,,,,,,,,,,,,,
test_after_changes,2023-11-15_09h45.23.669,two_step_task_legacy,2022.2.4,Win32,59.99520038,41,learning,1,resources/alien1_norm.png,0.7,resources/alien2_norm.png,0.3,TRUE,TRUE,3,0.834576932,red,x,0.0667,alien1,TRUE,2,0.074794523,116,1,0.7,x,0.2057,0,236,236,236,1,0.7,0.3,0.6,0.4,FALSE,,,,,,,,,,,,,,,,,,,,,,,,,,,,,,,,,
test_after_changes,2023-11-15_09h45.23.669,two_step_task_legacy,2022.2.4,Win32,59.99520038,41,learning,1,resources/alien2_norm.png,0.3,resources/alien1_norm.png,0.7,TRUE,TRUE,3,0.81586505,red,x,0.1796,alien2,TRUE,3,0.391709048,116,0,0.3,x,0.0513,0,237,237,237,1,0.7,0.3,0.6,0.4,TRUE,,,,,,,,,,,,,,,,,,,,,,,,,,,,,,,,,
test_after_changes,2023-11-15_09h45.23.669,two_step_task_legacy,2022.2.4,Win32,59.99520038,41,learning,0,resources/alien3_norm.png,0.6,resources/alien4_norm.png,0.4,TRUE,TRUE,2,0.152769634,purple,x,0.0243,alien3,TRUE,2,0.496263771,117,1,0.6,x,0.0555,0,238,238,238,1,0.7,0.3,0.6,0.4,FALSE,,,,,,,,,,,,,,,,,,,,,,,,,,,,,,,,,
test_after_changes,2023-11-15_09h45.23.669,two_step_task_legacy,2022.2.4,Win32,59.99520038,41,learning,0,resources/alien3_norm.png,0.6,resources/alien4_norm.png,0.4,TRUE,TRUE,2,0.420070672,purple,x,0.1178,alien3,TRUE,3,0.991264452,117,0,0.6,x,0.2276,0,239,239,239,1,0.7,0.3,0.6,0.4,FALSE,,,,,,,,,,,,,,,,,,,,,,,,,,,,,,,,,
test_after_changes,2023-11-15_09h45.23.669,two_step_task_legacy,2022.2.4,Win32,59.99520038,41,learning,0,resources/alien3_norm.png,0.6,resources/alien4_norm.png,0.4,TRUE,TRUE,2,0.47252082,purple,x,0.1608,alien3,TRUE,2,0.227579564,118,1,0.6,x,0.1865,0,240,240,240,1,0.7,0.3,0.6,0.4,FALSE,,,,,,,,,,,,,,,,,,,,,,,,,,,,,,,,,
test_after_changes,2023-11-15_09h45.23.669,two_step_task_legacy,2022.2.4,Win32,59.99520038,41,learning,0,resources/alien4_norm.png,0.4,resources/alien3_norm.png,0.6,TRUE,TRUE,2,0.45342436,purple,x,0.1664,alien4,TRUE,2,0.285420898,119,1,0.4,x,0.2361,0,241,241,241,1,0.7,0.3,0.6,0.4,TRUE,,,,,,,,,,,,,,,,,,,,,,,,,,,,,,,,,
test_after_changes,2023-11-15_09h45.23.669,two_step_task_legacy,2022.2.4,Win32,59.99520038,41,learning,0,resources/alien3_norm.png,0.6,resources/alien4_norm.png,0.4,TRUE,TRUE,2,0.00042048,purple,x,0.1667,alien3,TRUE,3,0.745219227,119,0,0.6,x,0.0403,0,242,242,242,1,0.7,0.3,0.6,0.4,FALSE,,,,,,,,,,,,,,,,,,,,,,,,,,,,,,,,,
test_after_changes,2023-11-15_09h45.23.669,two_step_task_legacy,2022.2.4,Win32,59.99520038,41,learning,0,resources/alien3_norm.png,0.6,resources/alien4_norm.png,0.4,TRUE,TRUE,2,0.455777501,purple,x,0.1001,alien3,TRUE,2,0.431240516,120,1,0.6,x,0.1067,0,243,243,243,1,0.7,0.3,0.6,0.4,FALSE,,,,,,,,,,,,,,,,,,,,,,,,,,,,,,,,,
test_after_changes,2023-11-15_09h45.23.669,two_step_task_legacy,2022.2.4,Win32,59.99520038,41,learning,0,resources/alien3_norm.png,0.6,resources/alien4_norm.png,0.4,TRUE,TRUE,2,0.49790554,purple,x,0.0364,alien3,TRUE,2,0.306020423,121,1,0.6,x,0.025,0,244,244,244,1,0.7,0.3,0.6,0.4,FALSE,,,,,,,,,,,,,,,,,,,,,,,,,,,,,,,,,
test_after_changes,2023-11-15_09h45.23.669,two_step_task_legacy,2022.2.4,Win32,59.99520038,41,learning,0,resources/alien3_norm.png,0.6,resources/alien4_norm.png,0.4,TRUE,TRUE,2,0.32709329,purple,x,0.9168,alien3,TRUE,3,0.906874294,121,0,0.6,x,0.8096,0,245,245,245,1,0.7,0.3,0.6,0.4,FALSE,,,,,,,,,,,,,,,,,,,,,,,,,,,,,,,,,
test_after_changes,2023-11-15_09h45.23.669,two_step_task_legacy,2022.2.4,Win32,59.99520038,41,learning,0,resources/alien3_norm.png,0.6,resources/alien4_norm.png,0.4,TRUE,TRUE,2,0.189609473,purple,x,0.1833,alien3,TRUE,2,0.241296994,122,1,0.6,x,0.0026,0,246,246,246,1,0.7,0.3,0.6,0.4,FALSE,,,,,,,,,,,,,,,,,,,,,,,,,,,,,,,,,
test_after_changes,2023-11-15_09h45.23.669,two_step_task_legacy,2022.2.4,Win32,59.99520038,41,learning,1,resources/alien1_norm.png,0.7,resources/alien2_norm.png,0.3,TRUE,TRUE,3,0.825302347,red,x,0.1167,alien1,TRUE,2,0.411925737,123,1,0.7,x,0.3398,0,247,247,247,1,0.7,0.3,0.6,0.4,FALSE,,,,,,,,,,,,,,,,,,,,,,,,,,,,,,,,,
test_after_changes,2023-11-15_09h45.23.669,two_step_task_legacy,2022.2.4,Win32,59.99520038,41,learning,0,resources/alien2_norm.png,0.3,resources/alien1_norm.png,0.7,TRUE,TRUE,3,0.555435324,red,m,0.196,alien1,TRUE,3,0.985078109,123,0,0.7,m,0.0151,0,248,248,248,1,0.7,0.3,0.6,0.4,TRUE,,,,,,,,,,,,,,,,,,,,,,,,,,,,,,,,,
test_after_changes,2023-11-15_09h45.23.669,two_step_task_legacy,2022.2.4,Win32,59.99520038,41,learning,1,resources/alien3_norm.png,0.6,resources/alien4_norm.png,0.4,TRUE,TRUE,2,0.795319524,purple,m,0.3225,alien3,TRUE,2,0.343595073,124,1,0.6,x,0.031,0,249,249,249,1,0.7,0.3,0.6,0.4,FALSE,,,,,,,,,,,,,,,,,,,,,,,,,,,,,,,,,
test_after_changes,2023-11-15_09h45.23.669,two_step_task_legacy,2022.2.4,Win32,59.99520038,41,learning,1,resources/alien2_norm.png,0.3,resources/alien1_norm.png,0.7,TRUE,TRUE,3,0.84294883,red,x,0.2833,alien2,TRUE,2,0.293940162,125,1,0.3,x,0.226,0,250,250,250,1,0.7,0.3,0.6,0.4,TRUE,,,,,,,,,,,,,,,,,,,,,,,,,,,,,,,,,
test_after_changes,2023-11-15_09h45.23.669,two_step_task_legacy,2022.2.4,Win32,59.99520038,41,learning,1,resources/alien1_norm.png,0.7,resources/alien2_norm.png,0.3,TRUE,TRUE,3,0.994829104,red,x,0.0221,alien1,TRUE,2,0.146338411,126,1,0.7,x,0.1968,0,251,251,251,1,0.7,0.3,0.6,0.4,FALSE,,,,,,,,,,,,,,,,,,,,,,,,,,,,,,,,,
test_after_changes,2023-11-15_09h45.23.669,two_step_task_legacy,2022.2.4,Win32,59.99520038,41,learning,0,resources/alien3_norm.png,0.6,resources/alien4_norm.png,0.4,TRUE,TRUE,2,0.532445231,purple,x,0.241,alien3,TRUE,2,0.446916803,127,1,0.6,x,0.1928,0,252,252,252,1,0.7,0.3,0.6,0.4,FALSE,,,,,,,,,,,,,,,,,,,,,,,,,,,,,,,,,
test_after_changes,2023-11-15_09h45.23.669,two_step_task_legacy,2022.2.4,Win32,59.99520038,41,learning,0,resources/alien4_norm.png,0.4,resources/alien3_norm.png,0.6,TRUE,TRUE,2,0.031691426,purple,x,0.1164,alien4,TRUE,3,0.914522119,127,0,0.4,x,0.1018,0,253,253,253,1,0.7,0.3,0.6,0.4,TRUE,,,,,,,,,,,,,,,,,,,,,,,,,,,,,,,,,
test_after_changes,2023-11-15_09h45.23.669,two_step_task_legacy,2022.2.4,Win32,59.99520038,41,learning,1,resources/alien1_norm.png,0.7,resources/alien2_norm.png,0.3,TRUE,TRUE,3,0.857413557,red,x,0.2092,alien1,TRUE,3,0.947680684,127,0,0.7,x,0.2932,0,254,254,254,1,0.7,0.3,0.6,0.4,FALSE,,,,,,,,,,,,,,,,,,,,,,,,,,,,,,,,,
test_after_changes,2023-11-15_09h45.23.669,two_step_task_legacy,2022.2.4,Win32,59.99520038,41,learning,0,resources/alien4_norm.png,0.4,resources/alien3_norm.png,0.6,TRUE,TRUE,2,0.075398234,purple,x,0.024,alien4,TRUE,3,0.534183432,127,0,0.4,x,0.2637,0,255,255,255,1,0.7,0.3,0.6,0.4,TRUE,,,,,,,,,,,,,,,,,,,,,,,,,,,,,,,,,
test_after_changes,2023-11-15_09h45.23.669,two_step_task_legacy,2022.2.4,Win32,59.99520038,41,learning,1,resources/alien1_norm.png,0.7,resources/alien2_norm.png,0.3,TRUE,TRUE,3,0.928699906,red,x,1.1789,alien1,TRUE,2,0.214081088,128,1,0.7,x,0.0012,0,256,256,256,1,0.7,0.3,0.6,0.4,FALSE,,,,,,,,,,,,,,,,,,,,,,,,,,,,,,,,,
test_after_changes,2023-11-15_09h45.23.669,two_step_task_legacy,2022.2.4,Win32,59.99520038,41,learning,0,resources/alien4_norm.png,0.4,resources/alien3_norm.png,0.6,TRUE,TRUE,2,0.351604277,purple,x,0.1057,alien4,TRUE,3,0.966790833,128,0,0.4,x,0.9033,0,257,257,257,1,0.7,0.3,0.6,0.4,TRUE,,,,,,,,,,,,,,,,,,,,,,,,,,,,,,,,,
test_after_changes,2023-11-15_09h45.23.669,two_step_task_legacy,2022.2.4,Win32,59.99520038,41,learning,0,resources/alien3_norm.png,0.6,resources/alien4_norm.png,0.4,TRUE,TRUE,2,0.540461439,purple,x,0.5707,alien3,TRUE,2,0.274681238,129,1,0.6,x,0.2335,0,258,258,258,1,0.7,0.3,0.6,0.4,FALSE,,,,,,,,,,,,,,,,,,,,,,,,,,,,,,,,,
test_after_changes,2023-11-15_09h45.23.669,two_step_task_legacy,2022.2.4,Win32,59.99520038,41,learning,0,resources/alien4_norm.png,0.4,resources/alien3_norm.png,0.6,TRUE,TRUE,2,0.182493673,purple,x,0.1186,alien4,TRUE,3,0.446937216,129,0,0.4,x,0.0959,0,259,259,259,1,0.7,0.3,0.6,0.4,TRUE,,,,,,,,,,,,,,,,,,,,,,,,,,,,,,,,,
test_after_changes,2023-11-15_09h45.23.669,two_step_task_legacy,2022.2.4,Win32,59.99520038,41,learning,0,resources/alien4_norm.png,0.4,resources/alien3_norm.png,0.6,TRUE,TRUE,2,0.441995285,purple,x,0.1499,alien4,TRUE,3,0.771919581,129,0,0.4,x,0.0341,0,260,260,260,1,0.7,0.3,0.6,0.4,TRUE,,,,,,,,,,,,,,,,,,,,,,,,,,,,,,,,,
test_after_changes,2023-11-15_09h45.23.669,two_step_task_legacy,2022.2.4,Win32,59.99520038,41,learning,1,resources/alien2_norm.png,0.3,resources/alien1_norm.png,0.7,TRUE,TRUE,3,0.700530414,red,x,0.1576,alien2,TRUE,3,0.768445217,129,0,0.3,x,0.0294,0,261,261,261,1,0.7,0.3,0.6,0.4,TRUE,,,,,,,,,,,,,,,,,,,,,,,,,,,,,,,,,
test_after_changes,2023-11-15_09h45.23.669,two_step_task_legacy,2022.2.4,Win32,59.99520038,41,learning,0,resources/alien4_norm.png,0.4,resources/alien3_norm.png,0.6,TRUE,TRUE,2,0.538498401,purple,x,0.1737,alien4,TRUE,2,0.157029318,130,1,0.4,x,0.06,0,262,262,262,1,0.7,0.3,0.6,0.4,TRUE,,,,,,,,,,,,,,,,,,,,,,,,,,,,,,,,,
test_after_changes,2023-11-15_09h45.23.669,two_step_task_legacy,2022.2.4,Win32,59.99520038,41,learning,1,resources/alien2_norm.png,0.3,resources/alien1_norm.png,0.7,TRUE,TRUE,3,0.741728557,red,x,0.1421,alien2,TRUE,2,0.276081899,131,1,0.3,x,0.0702,0,263,263,263,1,0.7,0.3,0.6,0.4,TRUE,,,,,,,,,,,,,,,,,,,,,,,,,,,,,,,,,
test_after_changes,2023-11-15_09h45.23.669,two_step_task_legacy,2022.2.4,Win32,59.99520038,41,learning,0,resources/alien3_norm.png,0.6,resources/alien4_norm.png,0.4,TRUE,TRUE,2,0.13191126,purple,x,0.0708,alien3,TRUE,3,0.650267453,131,0,0.6,x,0.3196,0,264,264,264,1,0.7,0.3,0.6,0.4,FALSE,,,,,,,,,,,,,,,,,,,,,,,,,,,,,,,,,
test_after_changes,2023-11-15_09h45.23.669,two_step_task_legacy,2022.2.4,Win32,59.99520038,41,learning,0,resources/alien4_norm.png,0.4,resources/alien3_norm.png,0.6,TRUE,TRUE,2,0.525406004,purple,x,0.2508,alien4,TRUE,2,0.286725451,132,1,0.4,x,0.2553,0,265,265,265,1,0.7,0.3,0.6,0.4,TRUE,,,,,,,,,,,,,,,,,,,,,,,,,,,,,,,,,
test_after_changes,2023-11-15_09h45.23.669,two_step_task_legacy,2022.2.4,Win32,59.99520038,41,learning,0,resources/alien4_norm.png,0.4,resources/alien3_norm.png,0.6,TRUE,TRUE,2,0.26662535,purple,x,0.0854,alien4,TRUE,2,0.071543351,133,1,0.4,x,0.2243,0,266,266,266,1,0.7,0.3,0.6,0.4,TRUE,,,,,,,,,,,,,,,,,,,,,,,,,,,,,,,,,
test_after_changes,2023-11-15_09h45.23.669,two_step_task_legacy,2022.2.4,Win32,59.99520038,41,learning,1,resources/alien2_norm.png,0.3,resources/alien1_norm.png,0.7,TRUE,TRUE,3,0.995736797,red,x,0.05,alien2,TRUE,2,0.286960083,134,1,0.3,x,0.0758,0,267,267,267,1,0.7,0.3,0.6,0.4,TRUE,,,,,,,,,,,,,,,,,,,,,,,,,,,,,,,,,
test_after_changes,2023-11-15_09h45.23.669,two_step_task_legacy,2022.2.4,Win32,59.99520038,41,learning,0,resources/alien4_norm.png,0.4,resources/alien3_norm.png,0.6,TRUE,TRUE,2,0.312902797,purple,x,0.1442,alien4,TRUE,3,0.651973337,134,0,0.4,x,0.1348,0,268,268,268,1,0.7,0.3,0.6,0.4,TRUE,,,,,,,,,,,,,,,,,,,,,,,,,,,,,,,,,
test_after_changes,2023-11-15_09h45.23.669,two_step_task_legacy,2022.2.4,Win32,59.99520038,41,learning,1,resources/alien2_norm.png,0.3,resources/alien1_norm.png,0.7,TRUE,TRUE,3,0.831510321,red,x,0.1645,alien2,TRUE,3,0.669410688,134,0,0.3,x,0.2068,0,269,269,269,1,0.7,0.3,0.6,0.4,TRUE,,,,,,,,,,,,,,,,,,,,,,,,,,,,,,,,,
test_after_changes,2023-11-15_09h45.23.669,two_step_task_legacy,2022.2.4,Win32,59.99520038,41,learning,0,resources/alien3_norm.png,0.6,resources/alien4_norm.png,0.4,TRUE,TRUE,2,0.223061356,purple,x,0.1198,alien3,TRUE,3,0.717962044,134,0,0.6,x,0.0983,0,270,270,270,1,0.7,0.3,0.6,0.4,FALSE,,,,,,,,,,,,,,,,,,,,,,,,,,,,,,,,,
test_after_changes,2023-11-15_09h45.23.669,two_step_task_legacy,2022.2.4,Win32,59.99520038,41,learning,1,resources/alien1_norm.png,0.7,resources/alien2_norm.png,0.3,TRUE,TRUE,3,0.989819223,red,x,0.1585,alien1,TRUE,2,0.46226695,135,1,0.7,x,0.0377,0,271,271,271,1,0.7,0.3,0.6,0.4,FALSE,,,,,,,,,,,,,,,,,,,,,,,,,,,,,,,,,
test_after_changes,2023-11-15_09h45.23.669,two_step_task_legacy,2022.2.4,Win32,59.99520038,41,learning,0,resources/alien4_norm.png,0.4,resources/alien3_norm.png,0.6,TRUE,TRUE,2,0.211929529,purple,x,0.1912,alien4,TRUE,3,0.66920649,135,0,0.4,x,0.0546,0,272,272,272,1,0.7,0.3,0.6,0.4,TRUE,,,,,,,,,,,,,,,,,,,,,,,,,,,,,,,,,
test_after_changes,2023-11-15_09h45.23.669,two_step_task_legacy,2022.2.4,Win32,59.99520038,41,learning,1,resources/alien1_norm.png,0.7,resources/alien2_norm.png,0.3,TRUE,TRUE,3,0.798019566,red,x,0.1202,alien1,TRUE,2,0.31339946,136,1,0.7,x,0.1108,0,273,273,273,1,0.7,0.3,0.6,0.4,FALSE,,,,,,,,,,,,,,,,,,,,,,,,,,,,,,,,,
test_after_changes,2023-11-15_09h45.23.669,two_step_task_legacy,2022.2.4,Win32,59.99520038,41,learning,1,resources/alien1_norm.png,0.7,resources/alien2_norm.png,0.3,TRUE,TRUE,3,0.790807049,red,x,0.1343,alien1,TRUE,3,0.855768234,136,0,0.7,x,0.1235,0,274,274,274,1,0.7,0.3,0.6,0.4,FALSE,,,,,,,,,,,,,,,,,,,,,,,,,,,,,,,,,
test_after_changes,2023-11-15_09h45.23.669,two_step_task_legacy,2022.2.4,Win32,59.99520038,41,learning,1,resources/alien2_norm.png,0.3,resources/alien1_norm.png,0.7,TRUE,TRUE,3,0.818065852,red,x,0.0688,alien2,TRUE,2,0.128952523,137,1,0.3,x,0.1707,0,275,275,275,1,0.7,0.3,0.6,0.4,TRUE,,,,,,,,,,,,,,,,,,,,,,,,,,,,,,,,,
test_after_changes,2023-11-15_09h45.23.669,two_step_task_legacy,2022.2.4,Win32,59.99520038,41,learning,0,resources/alien3_norm.png,0.6,resources/alien4_norm.png,0.4,TRUE,TRUE,2,0.083400356,purple,x,0.1204,alien3,TRUE,3,0.867394795,137,0,0.6,x,0.077,0,276,276,276,1,0.7,0.3,0.6,0.4,FALSE,,,,,,,,,,,,,,,,,,,,,,,,,,,,,,,,,
test_after_changes,2023-11-15_09h45.23.669,two_step_task_legacy,2022.2.4,Win32,59.99520038,41,learning,0,resources/alien3_norm.png,0.6,resources/alien4_norm.png,0.4,TRUE,TRUE,2,0.103556612,purple,x,0.0661,alien3,TRUE,3,0.766274929,137,0,0.6,x,0.1007,0,277,277,277,1,0.7,0.3,0.6,0.4,FALSE,,,,,,,,,,,,,,,,,,,,,,,,,,,,,,,,,
test_after_changes,2023-11-15_09h45.23.669,two_step_task_legacy,2022.2.4,Win32,59.99520038,41,learning,1,resources/alien1_norm.png,0.7,resources/alien2_norm.png,0.3,TRUE,TRUE,3,0.806821592,red,x,0.2626,alien1,TRUE,2,0.250368988,138,1,0.7,x,0.1218,0,278,278,278,1,0.7,0.3,0.6,0.4,FALSE,,,,,,,,,,,,,,,,,,,,,,,,,,,,,,,,,
test_after_changes,2023-11-15_09h45.23.669,two_step_task_legacy,2022.2.4,Win32,59.99520038,41,learning,0,resources/alien3_norm.png,0.6,resources/alien4_norm.png,0.4,TRUE,TRUE,2,0.581674588,purple,x,0.1271,alien3,TRUE,2,0.21869217,139,1,0.6,x,0.3104,0,279,279,279,1,0.7,0.3,0.6,0.4,FALSE,,,,,,,,,,,,,,,,,,,,,,,,,,,,,,,,,
